Time (s),Linear Acceleration x (m/s^2),Linear Acceleration y (m/s^2),Linear Acceleration z (m/s^2),Absolute acceleration (m/s^2)
0.009201542,0.499230302,0.854976364,-0.771586883,1.255213845
0.019264292,0.781856056,0.764629281,-1.28444266,1.686935024
0.029326292,0.963847573,0.810162719,-1.343895979,1.841581434
0.039389292,1.032198747,0.866305929,-1.18740987,1.7960686
0.049452292,0.997106682,0.87948263,-1.036362256,1.685751511
0.059514292,0.918789075,0.912632834,-0.785037233,1.514382882
0.069577292,0.939830573,1.071012856,-0.585515032,1.540512219
0.079639292,0.954867858,1.1455555,-0.47826014,1.566142647
0.089702292,0.918114307,1.157903066,-0.335986274,1.515440585
0.099765292,0.956329881,1.171855107,-0.259608189,1.534668578
0.109827292,0.976206248,1.150389978,-0.207573817,1.522978211
0.119890292,0.901783179,1.05342794,-0.140532566,1.393797952
0.129952292,0.491141703,0.742021607,0.044007899,0.890928129
0.140015292,-0.206946703,0.390357778,0.534741905,0.693653399
0.150077292,0.231687222,0.766272933,0.465698567,0.926136239
0.160140292,0.251558254,0.274538469,0.556109385,0.669261215
0.170203292,0.05459633,-0.333935655,0.936480119,0.995735303
0.180265292,0.409109872,-0.228568245,1.010328113,1.113722239
0.190328292,0.822965124,-0.131170589,0.854951806,1.193909507
0.200390292,0.93273717,-0.210463511,0.199211129,0.976718276
0.210453292,0.729766427,-0.212097223,-0.663387081,1.008774846
0.220516292,0.650597832,-0.109929408,-1.230799134,1.396505826
0.230578292,0.624215999,-0.23325011,-1.708479815,1.833836008
0.240641292,0.540841355,-0.239041777,-2.075300796,2.15789799
0.250703292,0.516757148,-0.289907876,-2.225377187,2.302908629
0.260766292,0.358850349,-0.50076315,-2.113719926,2.201669647
0.270829292,0.20518099,-0.711155909,-1.789035151,1.936101427
0.280891292,0.260410061,-0.873584543,-1.493903958,1.750060682
0.290954292,0.3410667,-1.040982434,-1.243244348,1.656993491
0.301016292,0.252631145,-1.244886246,-0.116648444,1.275606177
0.311079292,-0.69283037,-0.87601143,-0.608190535,1.271733335
0.321141292,-1.531017259,-0.77450786,-0.25935325,1.735263778
0.331204292,-2.738560408,-0.770659222,1.715560793,3.322164592
0.341267292,-3.178007608,0.002807833,1.223745053,3.40547973
0.351329292,-0.479178811,0.60619985,0.277905296,0.821171081
0.361392292,0.940678346,0.654356349,-0.735462785,1.361603279
0.371454292,0.363857173,0.09063155,-0.286831656,0.472100116
0.381517292,-0.073720964,-0.028971199,0.2373876,0.250253838
0.391580292,-0.696466023,0.079706905,0.40253402,0.808363624
0.401642292,-0.926223591,0.099780981,0.532707074,1.073137088
0.411705292,-0.794810708,0.175459739,0.432810318,0.921864932
0.421767292,-0.614816088,0.822619042,0.273702902,1.062833096
0.431830292,-0.496157517,1.10838592,0.051454328,1.215458423
0.441893292,-0.014103923,0.524796376,-0.277197783,0.593673957
0.451955292,0.180315705,0.320068983,-0.105478508,0.382208874
0.462018292,0.471961666,0.093557497,0.508613037,0.700134302
0.472080292,0.688312007,-0.121524729,0.876453772,1.121032066
0.482143292,0.623492698,-0.018522225,0.698240579,0.936283143
0.492206292,0.157127676,0.09307247,0.208377224,0.277078796
0.502268292,-0.37860524,0.093731452,-0.283354901,0.482096995
0.512331292,-0.580179594,0.096961454,-0.7095374,0.921657858
0.522393292,-0.702124885,0.076149167,-1.1301323,1.332657895
0.532456292,-0.844350731,-0.075329679,-1.374018495,1.614475005
0.542519292,-0.611545155,-0.04290453,-1.013819486,1.184760831
0.552581292,-0.441448994,0.038603318,-0.006094553,0.443175557
0.562644292,-0.159043389,-0.12381713,0.109165762,0.229221825
0.572706292,-0.120965187,-0.040585816,-0.094106843,0.158543
0.582769292,-0.417808774,0.135517701,-0.343697582,0.557725064
0.592831292,-0.674040927,0.126698931,-0.67665032,0.963451839
0.602894292,-0.834514764,-0.122109451,-0.926961436,1.253229075
0.612957292,-0.936980494,-0.087099832,-0.841186291,1.262185883
0.623019292,-0.923808764,0.146658986,-0.400829557,1.017642287
0.633082292,-0.509346424,0.055533346,0.28843847,0.5879749
0.643144292,-0.397955796,-0.034704687,0.939877351,1.021245644
0.653207292,-0.420686189,-0.24214928,1.113885811,1.215053391
0.663270292,-0.453653157,-0.328135802,0.996969565,1.143425819
0.673332292,-0.734059307,-0.168268248,0.735132417,1.052414814
0.683395292,-0.968449478,-0.090761358,0.391521959,1.048533004
0.693457292,-1.047360504,-0.018318742,0.198193129,1.066105115
0.703520292,-1.078470541,0.192104423,0.150254731,1.105703081
0.713583292,-1.070102372,0.504619096,0.304256943,1.221610333
0.723645292,-0.820542842,0.311783771,0.057650623,0.879672252
0.733708292,-0.494402695,0.36482825,0.024776407,0.614937027
0.743770292,-0.434329571,0.676594187,0.370568461,0.885292525
0.753833292,-0.300794222,0.9157456,0.683781,1.181788315
0.763895292,-0.281476337,0.846967725,0.922788863,1.28379225
0.773958292,-0.332030779,0.703198434,1.08960174,1.338642755
0.784021292,-0.40421831,0.713699156,1.216548885,1.467225312
0.794083292,-0.671808972,0.913252054,1.280652494,1.710388091
0.804146292,-0.617945737,0.714589687,1.225767605,1.547579263
0.814208292,-0.681727458,0.874428881,1.1915994,1.627663149
0.824271292,-0.62521675,1.077829248,1.076803354,1.646850732
0.834334292,-0.320790384,0.985459028,0.800517152,1.309528036
0.844396292,-0.156264353,0.988008414,0.677206391,1.207968406
0.854459292,-0.108233716,1.055167194,0.74612986,1.296843134
0.864521292,-0.173559979,1.014144299,0.886895145,1.358379447
0.874584292,-0.313440287,0.860579751,0.967311317,1.332116176
0.884647292,-0.410377767,0.546334594,1.021080558,1.22861585
0.894709292,-0.372008923,0.082157473,1.17439046,1.234638992
0.904772292,-0.369350194,-0.32680176,1.468353964,1.548961691
0.914834292,-0.412223733,-0.562187566,1.758347209,1.891498922
0.924897292,-0.287706399,-0.850316426,1.899469174,2.100903648
0.934960292,-0.195794528,-1.017815765,1.937611731,2.197412945
0.945022292,-0.055581293,-1.063134903,1.768418453,2.064133941
0.955085292,-0.056753514,-1.118410386,1.442077162,1.825828386
0.965147292,-0.269382906,-1.066823911,0.981530576,1.474477087
0.975210292,-0.230036188,-1.114810256,0.473534421,1.232863902
0.985273292,-0.467015945,-0.555512969,0.389118168,0.823475258
0.995335292,-0.349372597,-0.511276736,-0.20284108,0.651620761
1.005398292,-0.045690764,-0.820274309,-0.796974909,1.144598879
1.015460292,-0.238033279,-0.715507992,-0.954294246,1.216260267
1.025523583,-0.213238161,-0.584145615,-0.97790121,1.158873327
1.035585583,-0.246007565,-0.46107839,-0.770040295,0.930631538
1.045648583,-0.014233146,-0.453355095,-0.600579214,0.752614654
1.055711583,0.486540931,-0.585710914,-0.516241899,0.919937525
1.065773583,0.780565721,-0.819712976,-0.304276823,1.172090694
1.075836583,0.664512085,-0.765310482,-0.073576099,1.016213505
1.085898583,0.336978108,-0.515447263,0.154213296,0.634840032
1.095961583,0.428796058,-0.635340326,-0.145369967,0.780163968
1.106024583,0.539710576,-0.918009934,-0.322230699,1.112592634
1.116086583,0.310692681,-0.885005033,-0.316396932,0.98988427
1.126149583,0.131906424,-0.792644461,-0.495664378,0.944122726
1.136211583,0.094608973,-0.891444864,-0.645499864,1.104669578
1.146274583,0.191804461,-1.043087139,-0.444970772,1.150138565
1.156337583,0.421135329,-0.975106533,-0.085888581,1.065628718
1.166399583,0.455901265,-0.67017336,0.098133236,0.816460916
1.176462583,0.442513041,-0.567152729,0.113582164,0.728272557
1.186524583,0.363742239,-0.261886556,0.22194218,0.500151293
1.196587583,0.469512706,-0.346359819,-0.395220907,0.704703392
1.206650583,0.334353293,-0.367437277,-0.630064384,0.802361144
1.216712583,0.161911594,-0.149905652,-0.949807677,0.975100863
1.226775583,0.172505872,-0.055100652,-1.213980787,1.227413423
1.236837583,0.235767483,-0.005696942,-1.264303095,1.286110834
1.246900583,0.347061631,0.024971119,-1.202757642,1.252078782
1.256962583,0.496530789,0.04654676,-1.018962112,1.134457232
1.267025583,0.652265531,0.185255579,-0.724667655,0.992427913
1.277088583,0.618447136,0.440579221,-0.711119072,1.040325547
1.287150583,0.629303661,0.442454131,-0.843811691,1.141843652
1.297213583,0.629980769,0.366244445,-0.908947919,1.164988018
1.307275583,0.494597699,0.314724044,-0.920672756,1.09147443
1.317338583,0.40294391,0.301161427,-0.915062937,1.044223242
1.327401583,0.232069411,0.417295316,-0.754120665,0.892574686
1.337463583,0.332451778,0.326893269,-0.498492676,0.682552813
1.347526583,0.402328783,0.292196184,-0.26374217,0.562856102
1.357588583,0.338703767,0.346986641,-0.070034441,0.489923253
1.367651583,0.338928593,0.41572797,-0.03755842,0.537692264
1.377714583,0.379345863,0.538145861,-0.040349296,0.6596456
1.387776583,0.519076483,0.683417595,-0.018011178,0.858384767
1.397839583,0.747280008,0.83339663,0.07437249,1.121832706
1.407901583,0.734604121,1.10576169,0.230214821,1.347349618
1.417964583,0.687407735,1.102336098,0.398654392,1.358896461
1.428027583,0.558577641,1.101761317,0.552186488,1.353069436
1.438089583,0.393132574,1.044415627,0.743509723,1.340956349
1.448152583,0.231560996,0.984170009,0.876303499,1.337953259
1.458214583,0.171482755,0.999264304,1.033681308,1.447906258
1.468277583,0.169102646,1.023473824,1.160324398,1.556421241
1.478340583,0.080487947,1.067019793,1.257091139,1.650844535
1.488402583,-0.182157286,1.213570313,1.309409686,1.794571789
1.498465583,-0.425810762,1.316134568,1.052897598,1.738424102
1.508527583,-0.515811836,1.209734832,0.72774446,1.503040988
1.518590583,-0.623277082,1.214852315,0.540919488,1.468650524
1.528653583,-0.403739423,1.064879127,0.511101612,1.248277988
1.538715583,-0.276666125,1.139995383,0.584988198,1.310856518
1.548778583,-0.102045461,1.091895018,0.719984035,1.311878431
1.558840583,0.100208412,0.850121129,0.847000178,1.20422463
1.568903583,0.175826798,0.555791589,0.921396641,1.090316983
1.578965583,0.168460037,0.216087655,0.900946004,0.941688038
1.589028583,0.085522399,-0.125821263,0.86907634,0.882291764
1.599091583,-0.029468359,-0.400819616,0.767031902,0.865946123
1.609153583,-0.131651522,-0.63699158,0.648459139,0.918471367
1.619216583,-0.099455876,-0.869289179,0.63972223,1.083881764
1.629278583,0.048013242,-0.984568205,0.682556008,1.198983956
1.639341583,-0.077477069,-0.967304885,0.587594887,1.134437829
1.649404583,-0.383125211,-0.869876824,0.307565882,0.999033227
1.659466583,-0.676949259,-0.810848597,-0.097095355,1.060737128
1.669529583,-0.888226702,-0.801523458,-0.438889083,1.27436657
1.679591583,-0.944661689,-0.759727268,-0.614091545,1.358925919
1.689654583,-0.875881184,-0.622422073,-0.596268647,1.228866707
1.699717583,-0.830098216,-0.514593569,-0.508223028,1.100981487
1.709779583,-0.704833169,-0.424469265,-0.439604782,0.932853856
1.719842583,-0.613029106,-0.440033968,-0.404159546,0.856025418
1.729904583,-0.524518048,-0.538518621,-0.390161896,0.846963868
1.739967583,-0.489009844,-0.747177097,-0.380270746,0.970572039
1.750030583,-0.42283643,-0.954973692,-0.31961524,1.092208451
1.760092583,-0.34451166,-1.111864429,-0.198420585,1.180805454
1.770155583,-0.317457909,-1.191620742,-0.085375196,1.236134476
1.780217583,-0.308976523,-1.232084059,0.00651029,1.270251946
1.790280583,-0.268209005,-1.256342988,0.110361518,1.289384907
1.800343583,-0.298423761,-1.29023725,0.138115911,1.331482222
1.810405583,-0.372931906,-1.23729539,0.006178753,1.292291092
1.820468583,-0.459039904,-1.062908031,-0.193986057,1.173934285
1.830530583,-0.420796044,-0.97146401,-0.413525031,1.136580215
1.840593583,-0.374287364,-0.866404747,-0.631535543,1.135599119
1.850656583,-0.335722126,-0.711861084,-0.776334822,1.105509522
1.860718583,-0.364555623,-0.608296954,-0.95053741,1.185937331
1.870781583,-0.375497518,-0.450061358,-0.98862091,1.149314977
1.880843583,-0.373179536,-0.416446593,-0.90897657,1.067206229
1.890906583,-0.380018,-0.483559472,-0.81421367,1.02038588
1.900969583,-0.386882193,-0.570247368,-0.624575018,0.930028948
1.911031583,-0.363295548,-0.638820297,-0.410735325,0.841889859
1.921094583,-0.318081076,-0.640385304,-0.251647789,0.75802079
1.931156583,-0.263792749,-0.593082499,-0.145997958,0.665318622
1.941219583,-0.280930792,-0.60475091,-0.142210717,0.681813509
1.951281583,-0.383050074,-0.578151049,-0.232425653,0.731442191
1.961344583,-0.474205096,-0.527969952,-0.395565308,0.812462096
1.971407583,-0.437781182,-0.504537235,-0.534510355,0.855518267
1.981469583,-0.320484574,-0.440346209,-0.548346037,0.772850906
1.991532583,-0.203592009,-0.376800424,-0.468613404,0.634843908
2.001594583,-0.141912801,-0.332141437,-0.378200247,0.522965204
2.011657583,-0.054530695,-0.292128941,-0.338971862,0.450793565
2.021720833,-0.029892282,-0.235931936,-0.348015751,0.421512028
2.031782833,-0.001035542,-0.14764278,-0.326998519,0.35878614
2.041845833,0.044282134,-0.083420764,-0.280084553,0.29557958
2.051907833,0.033736973,0.012282076,-0.230904207,0.233678809
2.061970833,-0.050924278,0.084780826,-0.177735475,0.203398549
2.072033833,-0.134453508,0.145721385,-0.131758819,0.23806061
2.082095833,-0.248803996,0.267424454,-0.107820318,0.380847067
2.092158833,-0.295750706,0.386205086,-0.082065672,0.493312905
2.102220833,-0.228175896,0.477592388,0.001762351,0.52930316
2.112283833,-0.162781514,0.475871845,0.287085425,0.579111281
2.122346833,0.0127225,0.416837771,0.767694392,0.873653403
2.132408833,0.236661357,0.31298245,1.350448954,1.406299751
2.142471833,0.236262596,0.278729753,1.837215039,1.873197637
2.152533833,-0.022655476,0.313430055,2.020362697,2.04465574
2.162596833,-0.173825168,0.225303159,1.805973365,1.828255042
2.172659833,-0.242794082,0.138729284,1.540264776,1.565442545
2.182721833,-0.277807209,0.112665321,1.201092355,1.237939079
2.192784833,-0.282026706,0.194744733,0.842092025,0.909166405
2.202846833,-0.096549956,0.348211632,0.605214302,0.704881257
2.212909833,0.264708861,0.394762486,0.517408419,0.702580723
2.222972833,0.686046942,0.20798283,0.573368611,0.91796995
2.233034833,1.118108232,-0.027157685,0.750500654,1.346905635
2.243097833,1.26190749,-0.328954997,1.036396755,1.665755126
2.253159833,1.402964844,-0.840101925,1.215200517,2.037349723
2.263222833,1.48992829,-1.255160096,1.308720299,2.346926074
2.273285833,1.416303658,-1.425054747,1.476092169,2.493099512
2.283347833,1.239631792,-1.555735924,1.480204516,2.479517424
2.293410833,0.948710593,-1.601780701,1.178605133,2.203375425
2.303472833,0.591912033,-1.539233328,0.631694003,1.765966139
2.313535833,0.33946566,-1.428331819,0.092142178,1.471006085
2.323598833,0.207145508,-1.255657986,-0.376499292,1.327154082
2.333660833,0.14442608,-0.957970683,-0.697543591,1.193789673
2.343723833,0.153954411,-0.672665443,-0.903344532,1.136755076
2.353785833,0.218455924,-0.436067509,-1.023957973,1.134181552
2.363848833,0.287218595,-0.308578912,-1.087598484,1.166441566
2.373910833,0.308620428,-0.263836895,-1.022115515,1.09980753
2.383973833,0.260294798,-0.249865558,-0.94388971,1.010501838
2.394036833,0.201403542,-0.254919307,-0.824473779,0.88617394
2.404098833,0.179689907,-0.307431104,-0.725331899,0.808027667
2.414161833,0.209361457,-0.375081635,-0.534281144,0.685547076
2.424223833,0.24240992,-0.395557999,-0.259304718,0.531476845
2.434286833,0.286096368,-0.389792352,0.004280747,0.483536487
2.444349833,0.351817756,-0.434190845,0.286918194,0.628187452
2.454411833,0.329021948,-0.452677695,0.511007472,0.757826612
2.464474833,0.239204604,-0.399937564,0.639523425,0.79130216
2.474536833,0.10935068,-0.396645289,0.573494326,0.70581924
2.484599833,-0.114701467,-0.327275969,0.367305715,0.505152922
2.494662833,-0.34449865,-0.20592841,0.127400889,0.421090034
2.504724833,-0.483200891,-0.128584365,-0.141126643,0.519551508
2.514787833,-0.56741293,0.022800048,-0.286351599,0.635983108
2.524849833,-0.619933936,0.242908249,-0.365414726,0.759506698
2.534912833,-0.655808359,0.40882387,-0.423955879,0.881453429
2.544975833,-0.683483377,0.514485688,-0.531232406,1.007001945
2.555037833,-0.673359507,0.595331046,-0.584776529,1.072285255
2.565100833,-0.686708701,0.645627333,-0.576834256,1.105052601
2.575162833,-0.682004762,0.685598607,-0.573808907,1.124469922
2.585225833,-0.682587875,0.724048435,-0.634079082,1.179927382
2.595288833,-0.767202202,0.75013111,-0.734586872,1.300351404
2.605350833,-0.843049068,0.775452477,-0.887392743,1.448973484
2.615413833,-0.884517375,0.802614256,-0.993618525,1.553653244
2.625475833,-0.872476496,0.815305345,-0.944545768,1.522532348
2.635538833,-0.868356402,0.795561637,-0.772080973,1.408215249
2.645601833,-0.837918867,0.753578044,-0.540280387,1.249756293
2.655663833,-0.843695039,0.705354887,-0.273274886,1.13314871
2.665726833,-0.860911727,0.654641693,-0.041435124,1.082331565
2.675788833,-0.882310782,0.619858069,0.049666834,1.079427226
2.685851833,-0.908075514,0.590371437,0.036031128,1.083714822
2.695914833,-0.955142677,0.575401103,-0.080306244,1.117959327
2.705976833,-0.958337449,0.584146199,-0.204245582,1.14076891
2.716039833,-0.936706406,0.596548728,-0.21981087,1.132080428
2.726101833,-0.947043406,0.590204207,-0.189317055,1.131845028
2.736164833,-0.967759799,0.565522233,-0.124474942,1.127771446
2.746227833,-1.027546848,0.467038456,0.026272125,1.129011811
2.756289833,-1.095963656,0.355461887,0.215392714,1.172127771
2.766352833,-1.077463651,0.234978255,0.428716097,1.183190683
2.776414833,-0.967026412,0.080606791,0.713604723,1.204520335
2.786477833,-0.811222673,-0.067657548,1.031631859,1.314124827
2.796540833,-0.716257897,-0.184548651,1.290130831,1.487118402
2.806602833,-0.661478842,-0.285826519,1.422157452,1.594296985
2.816665833,-0.711462011,-0.371777666,1.479276563,1.683049606
2.826727833,-1.052352929,-0.221880199,1.427715815,1.787470268
2.836790833,-1.539870089,0.069957842,1.114593909,1.90221281
2.846853833,-1.907391274,0.13994609,0.730806062,2.047389529
2.856915833,-1.9428599,0.034785671,0.425701273,1.989255189
2.866978833,-1.770167648,-0.045180266,0.261018537,1.789878609
2.877040833,-1.547579935,-0.067493241,0.266524276,1.571812388
2.887103833,-1.171531317,-0.166659679,0.447517235,1.265121635
2.897166833,-0.693098976,-0.404752454,0.889340451,1.19797211
2.907228833,-0.371697559,-0.795484453,1.346482787,1.607473324
2.917291833,-0.203765233,-1.208268058,1.710092477,2.103770009
2.927353833,-0.171376482,-1.5456027,2.005701388,2.537931375
2.937416833,-0.255175853,-1.8021832,2.121721256,2.795474931
2.947479833,-0.396731828,-1.999196361,1.934426753,2.810015853
2.957541833,-0.648038286,-2.028941147,1.441003028,2.571584244
2.967604833,-0.991446431,-1.935840025,0.864658184,2.340529086
2.977666833,-1.352903761,-1.774761513,0.301802282,2.251935086
2.987729833,-1.712723724,-1.519701873,-0.124153345,2.293104967
2.997792833,-2.01404668,-1.252389978,-0.344502743,2.396569804
3.007854833,-2.138385529,-1.001333342,-0.296161473,2.379721149
3.017917833,-2.13304512,-0.819073291,-0.120498835,2.288073974
3.027980042,-2.040805732,-0.73132471,0.097892915,2.170093752
3.038043042,-1.889447777,-0.754773799,0.290576212,2.055269064
3.048106042,-1.689088401,-0.898469709,0.467406539,1.969450765
3.058168042,-1.547246206,-1.131399391,0.671477289,2.030989205
3.068231042,-1.358754923,-1.416830639,0.881105232,2.151736608
3.078293042,-1.214733324,-1.650663131,1.154385381,2.352205652
3.088356042,-1.139061583,-1.835664357,1.390446832,2.569137465
3.098419042,-1.145922706,-1.990614987,1.503586947,2.745261478
3.108481042,-1.211382577,-2.061262801,1.433434392,2.787648873
3.118544042,-1.302038978,-2.05455429,1.214354424,2.718667964
3.128606042,-1.377875611,-2.003843143,0.969600502,2.618024766
3.138669042,-1.470671069,-1.860090516,0.685107733,2.468234739
3.148732042,-1.600193767,-1.626113012,0.452790254,2.32591544
3.158794042,-1.694549116,-1.412970307,0.319294227,2.229334116
3.168857042,-1.766473962,-1.273621802,0.287834453,2.19667736
3.178919042,-1.882249416,-1.140497659,0.273122858,2.217700131
3.188982042,-1.962373959,-1.082402063,0.254357389,2.255482977
3.199045042,-2.015536697,-1.078674171,0.264752569,2.301308338
3.209107042,-2.013360217,-1.060601889,0.2982156,2.295087858
3.219170042,-1.972437163,-1.036676837,0.34267198,2.254469186
3.229232042,-1.892239092,-0.992785005,0.391545348,2.172440703
3.239295042,-1.756467914,-0.9387082,0.516368784,2.057422985
3.249358042,-1.599401177,-0.892626878,0.719814466,1.967993835
3.259420042,-1.485762733,-0.797459351,0.898194889,1.910546093
3.269483042,-1.39040327,-0.687609172,1.053571782,1.875110964
3.279545042,-1.282295708,-0.632141315,1.122737326,1.817807478
3.289608042,-1.165679132,-0.626772109,1.142640079,1.74850721
3.299671042,-1.187038864,-0.604516729,1.108998708,1.733314708
3.309733042,-1.252472423,-0.557146389,1.026989754,1.712836018
3.319796042,-1.262606964,-0.533610176,0.931873682,1.65749954
3.329858042,-1.189782963,-0.48016107,0.88599292,1.55920544
3.339921042,-1.098709363,-0.413862708,0.853249682,1.451371635
3.349984042,-1.074751712,-0.322856936,0.817190487,1.388210408
3.360046042,-1.093171172,-0.297541123,0.747383503,1.357253121
3.370109042,-1.171107833,-0.238433374,0.620788946,1.346745316
3.380171042,-1.305011556,-0.167076586,0.458641562,1.393313256
3.390234042,-1.357222368,-0.127892347,0.280359372,1.391765205
3.400297042,-1.37507304,-0.05346577,0.194594752,1.38980271
3.410359042,-1.375684074,0.040587863,0.174897237,1.387351106
3.420422042,-1.372036289,0.153635007,0.205507411,1.395822549
3.430484042,-1.445000331,0.279822598,0.266585087,1.495792182
3.440547042,-1.419179465,0.313317204,0.349444225,1.494773993
3.450610042,-1.181672143,0.299882056,0.484803175,1.311987965
3.460672042,-1.09703589,0.300636932,0.645340235,1.30779751
3.470735042,-1.173323197,0.389605826,0.844602234,1.497275178
3.480797042,-1.328225149,0.510084196,0.898828728,1.682932267
3.490860042,-1.379450266,0.535746456,0.852942118,1.708044952
3.500923042,-1.289669486,0.553550059,0.890110529,1.661915101
3.510985042,-1.156241726,0.616371374,0.95021055,1.618551417
3.521048042,-0.931911251,0.715488696,1.040129617,1.569156549
3.531110042,-0.656402874,0.854391058,1.219408173,1.627207764
3.541173042,-0.25349741,0.676634533,1.405240873,1.580125671
3.551236042,0.160920345,0.435219078,1.864944874,1.921803941
3.561298042,0.581989454,-0.007601965,2.591275477,2.655838495
3.571361042,0.685315309,-0.414106244,3.002970915,3.107889215
3.581423042,0.623281175,-0.820233671,3.168716674,3.331970597
3.591486042,0.392959204,-1.22084191,2.991677603,3.254997202
3.601549042,0.386895057,-1.806744028,2.446815922,3.066091963
3.611611042,0.209494627,-1.820134445,1.973862714,2.693122984
3.621674042,0.129992667,-1.77979655,1.442950151,2.294924616
3.631736042,0.018394463,-1.687824526,0.699062698,1.826958851
3.641799042,-0.243912508,-1.420722545,0.029029087,1.441800454
3.651862042,-0.484612263,-1.182053236,-0.560290144,1.394999621
3.661924042,-0.660881549,-0.963708263,-0.951727318,1.507077611
3.671987042,-0.826941889,-0.795979713,-1.032219504,1.543662429
3.682049042,-0.935471328,-0.627543941,-0.995913557,1.503582993
3.692112042,-0.991971072,-0.452826506,-0.896244258,1.411492906
3.702175042,-1.091931855,-0.300125593,-0.800665087,1.386886848
3.712237042,-1.107374936,-0.168106573,-0.701946545,1.321842661
3.722300042,-1.043241359,-0.140578466,-0.615100189,1.219205923
3.732362042,-0.962192957,-0.244918521,-0.572257056,1.145983641
3.742425042,-0.911160505,-0.419665777,-0.407913458,1.082924845
3.752488042,-0.909569624,-0.608776426,-0.21886596,1.11616663
3.762550042,-0.888366451,-0.801405929,-0.035613636,1.196960628
3.772613042,-0.901278272,-0.987966607,0.17292731,1.348437761
3.782675042,-0.899559045,-1.173998696,0.323906511,1.514065666
3.792738042,-0.947110357,-1.310922945,0.422944311,1.671651544
3.802801042,-1.045315074,-1.382879366,0.472142783,1.796651817
3.812863042,-1.143267631,-1.415910872,0.557739589,1.903401671
3.822926042,-1.211568226,-1.360855828,0.617288218,1.923764771
3.832988042,-1.296323032,-1.245837588,0.616247413,1.900611894
3.843051042,-1.401499532,-1.089577766,0.530427829,1.85276397
3.853114042,-1.463569772,-0.979519719,0.425352779,1.81174511
3.863176042,-1.545637637,-0.858891952,0.297916807,1.793166337
3.873239042,-1.651651896,-0.731506266,0.209599877,1.818512444
3.883301042,-1.697159752,-0.613208323,0.136828939,1.809723136
3.893364042,-1.678996546,-0.502096023,0.09576102,1.755078343
3.903427042,-1.564037801,-0.446375858,0.18774357,1.637288398
3.913489042,-1.480086548,-0.400122336,0.320408707,1.566338346
3.923552042,-1.44166084,-0.372522309,0.431847281,1.550371221
3.933614042,-1.424907544,-0.358705046,0.439378495,1.533650638
3.943677042,-1.448107103,-0.346208669,0.393797695,1.540114037
3.953740042,-1.46638506,-0.340842971,0.315412846,1.538162651
3.963802042,-1.502125581,-0.329270162,0.234355234,1.555545717
3.973865042,-1.485573868,-0.289700884,0.226780166,1.530452731
3.983928042,-1.376111652,-0.263170897,0.324029887,1.438032534
3.993990042,-1.214974814,-0.250381575,0.534921999,1.350924231
4.004053042,-1.116230691,-0.216310434,0.681001233,1.325339141
4.014115042,-1.068045687,-0.197506666,0.709000626,1.297078394
4.024177417,-1.142825435,-0.194887405,0.635625671,1.322138824
4.034240417,-1.189443093,-0.229931231,0.502966965,1.311723679
4.044302417,-1.221530128,-0.260566548,0.37735357,1.304770668
4.054365417,-1.259582053,-0.249325568,0.271933535,1.31250068
4.064427417,-1.230409709,-0.211556648,0.22042892,1.267774892
4.074490417,-1.192309106,-0.168861741,0.270191064,1.234146872
4.084553417,-1.17086605,-0.128560684,0.297057851,1.214783324
4.094615417,-1.133906677,-0.014537348,0.336723023,1.182936212
4.104678417,-1.122351848,0.021402563,0.298922528,1.161673973
4.114740417,-1.067655677,0.037727112,0.280642962,1.104568899
4.124803417,-0.942340052,-0.019548411,0.399743729,1.023807581
4.134866417,-0.815288973,-0.050374932,0.570055579,0.996090913
4.144928417,-0.776874228,0.025396796,0.822967536,1.132013308
4.154991417,-0.762892512,-0.04140121,0.780430797,1.09214984
4.165053417,-0.842120676,-0.078176689,0.797000052,1.162104948
4.175116417,-1.034898991,-0.201578082,0.739633019,1.287907856
4.185179417,-1.194281518,-0.291404178,0.566280617,1.353476441
4.195241417,-1.393173535,-0.209303423,0.497956486,1.494222568
4.205304417,-1.719819467,0.064322881,0.464017493,1.782478237
4.215366417,-2.066430131,0.233731336,0.430063881,2.123609843
4.225429417,-2.151745393,0.439414163,0.482914524,2.248621685
4.235492417,-2.123908554,0.715116813,0.551674857,2.307969833
4.245554417,-1.875593238,0.662476085,0.404746606,2.029912406
4.255617417,-1.516610596,0.602607613,0.465198045,1.696953994
4.265679417,-1.148480424,0.480155808,0.74555391,1.451002245
4.275742417,-0.892129134,0.181573003,1.079844491,1.412418943
4.285805417,-0.835224762,-0.204266632,1.37968971,1.625690301
4.295867417,-0.846854728,-0.643158054,1.459636935,1.805922256
4.305930417,-0.885793676,-0.987557886,1.406026154,1.933083174
4.315992417,-0.95572199,-1.318479302,1.240979721,2.047394163
4.326055417,-1.078573306,-1.554190505,0.938759948,2.111894586
4.336118417,-1.305433579,-1.483926854,0.615063937,2.06990323
4.346180417,-1.612184067,-1.299964094,0.21106402,2.08172816
4.356243417,-1.921575158,-1.067114518,-0.157860205,2.203657034
4.366305417,-2.185820481,-0.902348167,-0.400614379,2.398444344
4.376368417,-2.352279601,-0.758897256,-0.4451228,2.511429607
4.386431417,-2.465053095,-0.623582745,-0.379296016,2.570837931
4.396493417,-2.553008375,-0.501002301,-0.194302976,2.608947817
4.406556417,-2.545996394,-0.451374058,-0.043479896,2.586063935
4.416618417,-2.514263554,-0.467926941,0.047375311,2.557874364
4.426681417,-2.424410707,-0.560777802,0.125412251,2.491579269
4.436744417,-2.235083857,-0.71271887,0.322496163,2.36803121
4.446806417,-2.005128507,-0.838709995,0.612806327,2.258208666
4.456869417,-1.717937102,-1.039722651,1.020040923,2.252290959
4.466931417,-1.360944121,-1.272991472,1.550455304,2.424167453
4.476994417,-1.159239301,-1.447099335,1.962658864,2.699992974
4.487057417,-1.1499567,-1.561734583,2.048806477,2.821174099
4.497119417,-1.176334951,-1.669075429,1.928976563,2.809008239
4.507182417,-1.172790369,-1.701123433,1.684692172,2.665979351
4.517245417,-1.187904983,-1.614135575,1.275849591,2.375782836
4.527307417,-1.269653151,-1.442224512,0.861912916,2.105926053
4.537370417,-1.438972144,-1.195668477,0.445767748,1.923271386
4.547432417,-1.562502322,-1.006558998,0.088957785,1.860776185
4.557495417,-1.613395756,-0.872607474,-0.103627864,1.83717947
4.567558417,-1.608404865,-0.744107308,-0.134253241,1.777269206
4.577620417,-1.536281945,-0.652117742,-0.042727944,1.66950455
4.587683417,-1.48169044,-0.639883613,0.108187523,1.617579098
4.597745417,-1.408248242,-0.69470126,0.318618289,1.602276682
4.607808417,-1.404924977,-0.794638361,0.493256494,1.687769618
4.617871417,-1.472472889,-0.932971789,0.540208467,1.824948754
4.627933417,-1.506406036,-1.067394599,0.461435362,1.903027317
4.637996417,-1.519102387,-1.158383707,0.340148907,1.940419067
4.648058417,-1.500588933,-1.185472687,0.244391395,1.927910733
4.658121417,-1.453275603,-1.143211936,0.148748488,1.855012028
4.668184417,-1.400049276,-1.049674612,0.018115844,1.749937985
4.678246417,-1.378688959,-0.960377104,-0.090886781,1.682666881
4.688309417,-1.299698338,-0.921603048,-0.155351164,1.600844131
4.698371417,-1.240177044,-0.860233596,-0.160938764,1.517874246
4.708434417,-1.291670549,-0.770814466,-0.187078741,1.515772477
4.718497417,-1.336377191,-0.704583054,-0.198320598,1.523703493
4.728559417,-1.258176382,-0.626248491,-0.093410439,1.408517125
4.738622417,-1.158342338,-0.484538881,0.053498515,1.256740621
4.748684417,-1.13882477,-0.301602892,0.120286582,1.184210718
4.758747417,-1.169527769,-0.152730442,0.156755666,1.189829454
4.768810417,-1.250594736,-0.002402621,0.247682208,1.274888012
4.778872417,-1.284026484,0.161833388,0.386760571,1.350739722
4.788935417,-1.278244903,0.298291029,0.610287931,1.447528559
4.798997417,-1.204781071,0.404632001,0.950047998,1.586762642
4.809060417,-1.080173251,0.462782561,1.328366944,1.773555944
4.819123417,-0.981636411,0.50257988,1.656259502,1.989822132
4.829185417,-0.964180572,0.664284044,1.850951902,2.190191866
4.839248417,-1.026897661,0.907207203,1.808850195,2.269247176
4.849310417,-1.08722777,1.088317106,1.568025017,2.196633971
4.859373417,-1.044633581,1.246120593,1.267964036,2.061991428
4.869436417,-0.882981896,1.396738436,0.975179915,1.918726441
4.879498417,-0.618318205,1.583019032,0.738027374,1.852822459
4.889561417,-0.21423935,1.733036367,0.715989802,1.887314215
4.899624417,0.191182609,1.812381914,0.949182025,2.054805467
4.909686417,0.552047763,1.673395936,1.203565142,2.133911841
4.919749417,0.995102256,1.239527273,1.647310338,2.289167471
4.929811417,1.411912984,0.527962058,2.212966472,2.677585258
4.939874417,1.903458583,-0.209204021,2.671248431,3.286714024
4.949937417,2.028013047,-0.64737565,2.886110802,3.586302792
4.959999417,1.727203623,-0.935934573,2.652851336,3.301034094
4.970062417,1.262555508,-0.975824863,2.063939656,2.608855588
4.980124417,0.863148725,-0.840078244,1.324518306,1.790280961
4.990187417,0.760731673,-0.796149867,0.624059878,1.265708505
5.000250417,1.107813039,-1.027421864,-0.125373074,1.516101521
5.010312417,0.991485607,-0.562291646,-0.521060005,1.253283341
5.020375417,1.069583797,-0.38316161,-0.81766762,1.399786646
5.030437292,1.060662846,-0.172078294,-1.118323263,1.550891206
5.040500292,1.017797931,0.066282282,-1.209569063,1.582202038
5.050563292,0.901800136,0.192998462,-1.294271829,1.58922354
5.060625292,0.697517717,0.199992902,-1.368212795,1.548720239
5.070688292,0.53542866,0.063251671,-1.328274558,1.433526395
5.080750292,0.42471207,-0.134322823,-1.199908293,1.279922996
5.090813292,0.331469592,-0.308973892,-0.977776079,1.07767482
5.100876292,0.267446381,-0.47705269,-0.73726782,0.917970955
5.110938292,0.193728049,-0.678700939,-0.509823411,0.870681016
5.121001292,0.110633267,-0.853427437,-0.311740794,0.915292539
5.131063292,0.031832242,-0.961164724,-0.177599235,0.977953172
5.141126292,-0.094553132,-1.043142688,-0.16833783,1.060860305
5.151189292,-0.223741807,-1.055216603,-0.244700713,1.106083593
5.161251292,-0.314855752,-0.989364091,-0.379435179,1.105416892
5.171314292,-0.370086212,-0.831134343,-0.598955442,1.089263844
5.181377292,-0.461961612,-0.648417624,-0.870765601,1.179867229
5.191439292,-0.560808354,-0.486007116,-1.130650948,1.352435023
5.201502292,-0.654940339,-0.35741515,-1.365236562,1.555815962
5.211564292,-0.739606414,-0.218635579,-1.548912224,1.730302933
5.221627292,-0.723379221,-0.069221093,-1.634787941,1.789022266
5.231690292,-0.732054443,0.040134119,-1.62817474,1.785628024
5.241752292,-0.765872838,0.064973091,-1.580207691,1.757224816
5.251815292,-0.782739131,0.060457286,-1.520545042,1.71125476
5.261877292,-0.781219586,0.058731188,-1.454616516,1.65216906
5.271940292,-0.786990349,0.085824847,-1.392317941,1.601645705
5.282003292,-0.779372012,0.156255729,-1.350624955,1.567170812
5.292065292,-0.795484746,0.250124005,-1.299822006,1.544310606
5.302128292,-0.827829642,0.370184884,-1.203798446,1.507139497
5.312190292,-0.784442864,0.52398829,-1.09992266,1.44904941
5.322253292,-0.69353474,0.669075837,-0.91882679,1.331501251
5.332316292,-0.60785929,0.81368859,-0.726381474,1.248684141
5.342378292,-0.542411113,0.898756222,-0.566000535,1.192614425
5.352441292,-0.46725071,0.980338329,-0.426782423,1.166846049
5.362503292,-0.382108526,1.073372793,-0.277574344,1.172682222
5.372566292,-0.291089452,1.14968188,-0.132265772,1.193312922
5.382629292,-0.215687998,1.252024527,-0.03431497,1.270930464
5.392691292,-0.136740354,1.379030144,0.065851927,1.387356673
5.402754292,-0.03805251,1.476506737,0.175024121,1.487331026
5.412816292,0.095415304,1.528380311,0.376018066,1.576844964
5.422879292,0.198236252,1.59929885,0.626571842,1.729059483
5.432942292,0.266141429,1.643667523,0.827824234,1.859507232
5.443004292,0.266924371,1.684672292,0.952116158,1.953431475
5.453067292,0.118079111,1.772570561,1.00153624,2.039368508
5.463130292,-0.127842061,1.925336087,0.937717389,2.145361634
5.473192292,-0.312418779,2.080742215,0.805969096,2.253148873
5.483255292,-0.287057504,2.174333918,0.664326144,2.291606254
5.493317292,-0.041683339,2.177442883,0.725715476,2.295573558
5.503380292,0.292139904,2.11409064,1.029135098,2.369355188
5.513443292,0.570286836,1.955198402,1.425033113,2.485708599
5.523505292,0.753768517,1.669246752,1.791523726,2.562051709
5.533568292,0.73209742,1.253976327,1.916188703,2.40420515
5.543630292,0.553646391,0.76056839,1.731728929,1.970754598
5.553693292,0.368846456,0.327189138,1.380477329,1.465884749
5.563756292,0.315104405,-0.041733917,1.122712768,1.166840377
5.573818292,0.311004045,-0.385921496,1.012336047,1.127157127
5.583881292,0.203016497,-0.57557652,0.951987519,1.130833438
5.593943292,-0.027296849,-0.757976904,0.820142162,1.1170977
5.604006292,-0.344240788,-0.936643841,0.557252516,1.142949592
5.614069292,-0.744506527,-0.950100038,0.049247004,1.208058491
5.624131292,-1.066320027,-0.884529946,-0.448813562,1.456319072
5.634194292,-1.352734484,-0.703297836,-0.903384293,1.772179904
5.644257292,-1.624561161,-0.475583285,-1.259321852,2.109803297
5.654319292,-1.788998606,-0.237087638,-1.466553022,2.325404121
5.664382292,-1.823909992,-0.015931908,-1.485472273,2.352345501
5.674444292,-1.720372759,0.155216678,-1.350596303,2.192688994
5.684507292,-1.506888869,0.251365369,-1.105902607,1.885979637
5.694570292,-1.224722415,0.192003266,-0.84614473,1.500923433
5.704632292,-0.990656033,0.007823575,-0.597939781,1.157148464
5.714695292,-0.833700101,-0.249781358,-0.351732241,0.938702378
5.724757292,-0.68622879,-0.489609586,-0.120501759,0.851556324
5.734820292,-0.570709298,-0.725804939,0.134211141,0.933013688
5.744883292,-0.484905647,-0.972762676,0.409072376,1.161353056
5.754945292,-0.453737503,-1.183285829,0.652372096,1.425353439
5.765008292,-0.486053456,-1.343564442,0.749619479,1.613487754
5.775070292,-0.538938744,-1.43693629,0.713374928,1.692378403
5.785133292,-0.568385322,-1.492465543,0.582054065,1.699794754
5.795196292,-0.553685129,-1.493698136,0.350501402,1.631120037
5.805258292,-0.560883783,-1.423039212,0.095826509,1.532584072
5.815321292,-0.59342076,-1.282975008,-0.229330137,1.432049365
5.825383292,-0.669435879,-1.144412954,-0.586825978,1.449893146
5.835446292,-0.7547374,-1.055146437,-0.948328332,1.60695027
5.845509292,-0.855522202,-0.982980101,-1.213024768,1.780336262
5.855571292,-0.91486574,-0.897140636,-1.377891106,1.88160159
5.865634292,-0.856497079,-0.797792934,-1.406523167,1.829854702
5.875697292,-0.779527256,-0.699543339,-1.37280052,1.726732433
5.885759292,-0.700579904,-0.631165999,-1.312339725,1.615988328
5.895822292,-0.620311813,-0.583891845,-1.142759362,1.425347463
5.905884292,-0.484087768,-0.590752383,-0.914911494,1.19180216
5.915947292,-0.357517915,-0.562420869,-0.710753036,0.974323443
5.926010292,-0.263197941,-0.464518014,-0.564788992,0.77719801
5.936072292,-0.193210716,-0.340006235,-0.530571086,0.659120852
5.946135292,-0.186670313,-0.251560081,-0.590507385,0.668451384
5.956197292,-0.200086165,-0.117081138,-0.65464257,0.694477761
5.966260292,-0.152295702,0.067225438,-0.694939241,0.714600441
5.976323292,-0.056475479,0.256074132,-0.661503693,0.711583148
5.986385292,-0.011318748,0.469485224,-0.518053951,0.699231282
5.996448292,0.046551584,0.66039623,-0.33348425,0.741284005
6.006510292,0.169833987,0.799198605,-0.09089906,0.822085538
6.016573292,0.321694802,0.885650858,0.229424862,0.969794181
6.026636542,0.453660319,1.02096069,0.60659483,1.271269328
6.036698542,0.673502033,1.067766482,0.965527332,1.589331079
6.046761542,0.768083378,1.149570199,1.265086622,1.874008505
6.056823542,0.659800107,1.328229534,1.424868221,2.056642731
6.066886542,0.406548426,1.636754944,1.352159264,2.161615841
6.076949542,0.332162633,1.808799909,1.08303824,2.134258878
6.087011542,0.360238186,1.903962175,0.800549312,2.09659789
6.097074542,0.463943525,2.010049378,0.542758437,2.133103096
6.107137542,0.776445481,2.016343905,0.347569023,2.188450263
6.117199542,1.337118325,1.771461344,0.560922228,2.289234469
6.127262542,1.827894284,1.333662182,1.1646987,2.544872372
6.137324542,2.27743948,0.720371706,1.895948566,3.049637182
6.147387542,2.449319699,0.123756904,2.611903285,3.582809167
6.157450542,2.116435081,-0.38975493,2.849872098,3.5711311
6.167512542,1.620919223,-0.736229062,2.636456913,3.181244632
6.177575542,1.163878774,-0.881369819,2.139512579,2.59016228
6.187637542,0.753248407,-0.923861827,1.479404617,1.899879433
6.197700542,0.569443668,-0.78678672,0.833422943,1.27980203
6.207763542,0.53727755,-0.513406877,0.239745782,0.780853268
6.217825542,0.532497743,-0.221597779,-0.269578861,0.636657038
6.227888542,0.603881283,0.013338084,-0.611151565,0.859276872
6.237950542,0.690911679,0.143546805,-0.795407855,1.063314765
6.248013542,0.792666095,0.189332843,-0.865375637,1.188714204
6.258076542,0.863479532,0.209055501,-0.922174321,1.280510282
6.268138542,0.924868718,0.149720296,-0.910275822,1.30629261
6.278201542,0.888191181,0.002801401,-0.83497304,1.219045281
6.288264542,0.881953079,-0.171081344,-0.68001013,1.126731484
6.298326542,0.925307259,-0.303473416,-0.517627105,1.10282703
6.308389542,0.93242639,-0.436813322,-0.409729019,1.108197961
6.318451542,0.967249337,-0.570920382,-0.394659575,1.190494663
6.328514542,0.913515764,-0.648852072,-0.477328094,1.217933566
6.338577542,0.777008056,-0.660202687,-0.677309301,1.224073935
6.348639542,0.587230825,-0.614726552,-1.011724429,1.321482158
6.358702542,0.451089591,-0.487413957,-1.357431114,1.511182786
6.368764542,0.344438497,-0.370140445,-1.701460817,1.774995983
6.378827542,0.299925983,-0.255382406,-1.895028214,1.935538091
6.388890542,0.250303588,-0.13081157,-1.947585327,1.967956341
6.398952542,0.133634971,0.009903429,-1.967045445,1.971604465
6.409015542,0.103009375,0.169945815,-1.956203538,1.966271801
6.419077542,0.113769567,0.29787266,-1.914517568,1.940888754
6.429140542,0.105511179,0.401001757,-1.837869342,1.884064419
6.439203542,0.158089854,0.461653463,-1.670439584,1.740254213
6.449265542,0.137468186,0.470882416,-1.524279658,1.60126707
6.459328542,0.056521489,0.483444282,-1.452689858,1.532064253
6.469390542,-0.013353944,0.449269645,-1.345919116,1.418985485
6.479453542,0.009203444,0.372614695,-1.148281472,1.207260019
6.489516542,0.10817137,0.327834963,-0.844449037,0.912288871
6.499578542,0.206899121,0.308831804,-0.509081984,0.630356086
6.509641542,0.284696033,0.292673024,-0.172961808,0.443424309
6.519704542,0.390927516,0.284089311,0.198382578,0.522385592
6.529766542,0.490015602,0.282336901,0.51866557,0.767361316
6.539829542,0.550497373,0.273646769,0.657419413,0.900072329
6.549891542,0.532471065,0.319255051,0.670271593,0.913626418
6.559954542,0.429266467,0.43176542,0.567486312,0.832305108
6.570017542,0.304695813,0.585379377,0.417814549,0.781074613
6.580079542,0.196657723,0.76913573,0.279726119,0.841718916
6.590142542,0.191338365,0.930867376,0.23283145,0.978434937
6.600204542,0.265254187,1.046132369,0.340086926,1.131552842
6.610267542,0.372464567,1.145687063,0.509858494,1.308160687
6.620330542,0.482754457,1.23725329,0.809952804,1.555593493
6.630392542,0.328091656,1.421899005,1.115672135,1.836890097
6.640455542,-0.044976929,1.660428566,1.147035431,2.018597589
6.650517542,-0.237821189,1.700688985,0.935365639,1.955456678
6.660580542,-0.098854782,1.56584693,0.876330396,1.797109857
6.670643542,0.235762513,1.468190242,0.968574316,1.774627497
6.680705542,0.502850752,1.402001515,1.143926466,1.878040172
6.690768542,0.666529229,1.264108967,1.369958189,1.979651013
6.700831542,0.782802427,0.881514537,1.565058725,1.959402034
6.710893542,0.944079452,0.348636725,1.736972128,2.007462515
6.720956542,1.081328076,-0.186844853,1.892437897,2.187579165
6.731018542,1.169309229,-0.704804664,1.998917449,2.420682683
6.741081542,1.15976555,-1.20663493,1.933046225,2.556891021
6.751144542,0.935515474,-1.557469039,1.632371871,2.442444869
6.761206542,0.596795773,-1.698703855,1.10794387,2.114071806
6.771269542,0.319395969,-1.648269281,0.37246179,1.719748003
6.781331542,0.204861001,-1.524911742,-0.354455289,1.578911778
6.791394542,0.124683542,-1.25148132,-0.889577848,1.54048701
6.801457542,0.098118179,-0.928085856,-1.212886189,1.530380162
6.811519542,0.068411834,-0.623336577,-1.280498713,1.425799993
6.821582542,0.073047511,-0.399851902,-1.225467643,1.291119059
6.831645542,0.162323823,-0.388091397,-1.10948812,1.186561353
6.841707542,0.285124561,-0.524517463,-0.990261054,1.1563008
6.851770542,0.416768336,-0.743577551,-0.878907264,1.224369796
6.861832542,0.573386884,-0.963286679,-0.717141704,1.330783967
6.871895542,0.812862817,-1.175854602,-0.477303536,1.507049658
6.881958542,0.96899093,-1.366401912,-0.215369325,1.68889951
6.892020542,1.063594055,-1.548297096,0.062648238,1.879462959
6.902083542,1.120376367,-1.718719459,0.358469403,2.0827242
6.912145542,1.110970535,-1.87834143,0.551669594,2.250946778
6.922208542,1.026257098,-1.987392586,0.599279963,2.315614259
6.932271542,0.908029029,-2.009849403,0.497512683,2.260869348
6.942333542,0.799660096,-1.956331007,0.27608038,2.131409782
6.952396542,0.762068201,-1.787979729,-0.03609954,1.94394512
6.962459542,0.7452041,-1.527452942,-0.302709185,1.726289226
6.972521542,0.772104069,-1.341774609,-0.402664998,1.599575849
6.982584542,0.857016312,-1.165010941,-0.457349328,1.516870416
6.992646542,0.939358264,-0.945660832,-0.471858024,1.413972543
7.002709542,1.016157495,-0.785279893,-0.424518381,1.352573998
7.012772542,1.014291502,-0.686193561,-0.438259923,1.300661607
7.022834542,1.008556846,-0.632897944,-0.467249833,1.279089178
7.032897208,0.995038814,-0.645092897,-0.441674697,1.265434165
7.042959208,1.004578254,-0.70406616,-0.372638376,1.282086575
7.053022208,1.029764112,-0.762471074,-0.269944897,1.309445116
7.063085208,1.121493623,-0.82206765,-0.112122114,1.395032092
7.073147208,1.233439736,-0.849432034,0.025424863,1.497850055
7.083210208,1.267231234,-0.873385738,0.0987852,1.542217937
7.093272208,1.236737274,-0.887138974,0.108419073,1.525873304
7.103335208,1.17513291,-0.869806073,0.000370129,1.462019185
7.113398208,1.052412132,-0.832517209,-0.189719929,1.355230553
7.123460208,0.972267563,-0.793682342,-0.338506424,1.299931719
7.133523208,0.929213199,-0.748289822,-0.412740335,1.262429963
7.143585208,0.895399043,-0.683804389,-0.413085321,1.199986404
7.153648208,0.878424284,-0.623221972,-0.322342381,1.124250621
7.163711208,0.912442361,-0.556547926,-0.162001787,1.080990858
7.173773208,0.937274171,-0.500916932,0.025635948,1.063041789
7.183836208,0.957633006,-0.475980896,0.259170232,1.100358122
7.193899208,0.956747445,-0.443303146,0.453217685,1.147732383
7.203961208,0.974887408,-0.435551493,0.572492114,1.211551807
7.214024208,1.025463193,-0.479962265,0.79343442,1.382561649
7.224086208,1.09817712,-0.523387781,1.239116213,1.736472501
7.234149208,1.19526078,-0.593256161,1.629225485,2.105938481
7.244212208,1.301790033,-0.641692157,1.954024866,2.434058193
7.254274208,1.5658519,-0.750032292,2.045364221,2.682900559
7.264337208,1.715779333,-0.808626071,1.950086766,2.720406814
7.274400208,1.572594178,-0.687046085,1.768821326,2.464510835
7.284462208,1.366698951,-0.495066208,1.504524255,2.092020508
7.294525208,1.162768095,-0.291284895,1.026155941,1.577932999
7.304587208,1.275645085,-0.297582346,0.60934536,1.44468938
7.314650208,1.684769502,-0.538191762,0.510940229,1.840966747
7.324713208,2.103430727,-0.801777227,0.857616382,2.408894644
7.334775208,2.523889241,-1.118705086,1.556225921,3.169125603
7.344838208,2.862428409,-1.58823241,2.21277176,3.95124505
7.354900208,3.04812633,-2.106641872,2.610819211,4.532702401
7.364963208,2.95536727,-2.479810005,2.756393831,4.741451288
7.375026208,2.665292457,-2.801586376,2.651104188,4.688392423
7.385088208,2.314084419,-3.044788447,2.311642329,4.468714988
7.395151208,1.965866793,-3.086679069,1.968941113,4.155592501
7.405213208,1.724845441,-2.913698258,1.619170028,3.753190764
7.415276208,1.651007532,-2.690934544,1.233080717,3.389313005
7.425339208,1.735463254,-2.410174052,0.889969611,3.100454414
7.435401208,1.832440056,-2.170442596,0.624859777,2.908454463
7.445464208,1.9718368,-2.00079382,0.44631914,2.844383422
7.455527208,2.164600058,-1.855651309,0.342691861,2.871649858
7.465589208,2.339278902,-1.77297285,0.349160635,2.955938371
7.475652208,2.467653644,-1.748336191,0.39080626,3.049380835
7.485714208,2.572862011,-1.721156871,0.362231501,3.116602567
7.495777208,2.608831158,-1.699038316,0.297537323,3.127500546
7.505840208,2.657954786,-1.728863794,0.279315645,3.183034855
7.515902208,2.734410639,-1.753214231,0.329511067,3.26486435
7.525965208,2.743500136,-1.723739294,0.342505335,3.258125236
7.536027208,2.72831901,-1.761881559,0.361380147,3.267804593
7.546090208,2.720750958,-1.80040974,0.470859904,3.296311584
7.556153208,2.696513665,-1.789873057,0.554637641,3.283664784
7.566215208,2.633833852,-1.73810064,0.628691458,3.217658705
7.576278208,2.535355046,-1.697854255,0.668582917,3.123737728
7.586341208,2.389945318,-1.674316288,0.630946144,2.985509452
7.596403208,2.199481916,-1.612104837,0.515161334,2.775246638
7.606466208,1.988141322,-1.530456949,0.39040631,2.539177323
7.616528208,1.821685126,-1.48040683,0.242517947,2.359863563
7.626591208,1.677608855,-1.445798622,0.151176837,2.219810704
7.636654208,1.574737036,-1.413257113,0.103751825,2.11845624
7.646716208,1.435964629,-1.446658163,0.086946343,2.040189678
7.656779208,1.268071918,-1.460645872,0.105714735,1.937180517
7.666841208,1.169436552,-1.436453894,0.176894646,1.860718505
7.676904208,1.017483059,-1.373845125,0.255021048,1.728513216
7.686967208,0.814484981,-1.323691218,0.248918309,1.574009069
7.697029208,0.656852671,-1.310185904,0.215633619,1.481398121
7.707092208,0.489262554,-1.238707785,0.145855286,1.339794234
7.717155208,0.327943721,-1.171453988,0.089096949,1.219749891
7.727217208,0.185828168,-1.11944739,0.053069329,1.136006567
7.737280208,0.068962938,-1.067893074,0.042301682,1.070953285
7.747342208,-0.079168669,-1.057666294,0.044348792,1.061551922
7.757405208,-0.299010821,-1.053038515,0.036890084,1.095289215
7.767468208,-0.571832986,-1.010258239,-0.007797262,1.160894255
7.777530208,-0.809344255,-0.937222423,-0.062278694,1.239880086
7.787593208,-0.998567024,-0.868486648,-0.055505279,1.324570117
7.797655208,-1.151449932,-0.791715923,-0.012418317,1.397428089
7.807718208,-1.288043375,-0.72575056,0.033406312,1.478812223
7.817781208,-1.439365077,-0.693024571,0.129005365,1.602715591
7.827843208,-1.587585562,-0.673468558,0.221794245,1.738729565
7.837906208,-1.714365476,-0.677125699,0.346224748,1.875478546
7.847969208,-1.731086028,-0.719254011,0.545293205,1.952262751
7.858031208,-1.651828189,-0.769909025,0.865803069,2.017649927
7.868094208,-1.544265734,-0.841721019,1.179926603,2.117894643
7.878156208,-1.445380546,-0.935143153,1.358087171,2.192719408
7.888219208,-1.477019392,-1.002963545,1.34055371,2.232623212
7.898282208,-1.579807888,-1.012092803,1.160731949,2.206223801
7.908344208,-1.741545966,-0.950552028,0.898665006,2.178102454
7.918407208,-1.939024126,-0.774221931,0.650549519,2.186881075
7.928469208,-2.175705675,-0.460811464,0.443607202,2.267780796
7.938532208,-2.597288169,0.051689386,0.320747845,2.61752876
7.948595208,-3.056326173,0.533891427,0.173858187,3.10747428
7.958657208,-3.205154184,0.899348253,0.081954575,3.329948524
7.968720208,-2.949897493,1.10012819,0.022153346,3.148438982
7.978782208,-2.269868797,1.091849702,0.137768587,2.522582072
7.988845208,-1.307700398,0.745567943,0.733337322,1.67443588
7.998908208,-0.449956401,0.082050177,1.851407985,1.907066994
8.008970208,0.332021277,-0.579811658,3.31092856,3.377671923
8.019033208,0.761762976,-1.119405875,4.441721011,4.643515681
8.029096792,0.456228124,-1.539087439,4.665444252,4.933893424
8.039158792,-0.10533949,-1.720709559,4.174110907,4.516097836
8.049221792,-0.480078624,-1.824170485,3.12765928,3.652441104
8.059283792,-0.664840699,-1.670242241,2.113796525,2.774861807
8.069346792,-0.664494836,-1.283783971,1.132506269,1.836361925
8.079409792,-0.568267062,-0.738004569,0.412601171,1.01873349
8.089471792,-0.31086415,-0.300255401,-0.003345777,0.432204836
8.099534792,-0.041800721,0.03829897,-0.325108699,0.330014814
8.109596792,0.176253498,0.291688353,-0.573189102,0.66685316
8.119659792,0.337579202,0.393574039,-0.699405929,0.870648549
8.129722792,0.488067821,0.392932599,-0.718762552,0.953533341
8.139784792,0.583697133,0.260027142,-0.553538364,0.845411839
8.149847792,0.643254533,-0.06702868,-0.226388987,0.685216179
8.159910792,0.713883051,-0.3940386,0.115994725,0.823620182
8.169972792,0.764450064,-0.690714628,0.406984336,1.107748549
8.180035792,0.670172921,-0.93604187,0.516356505,1.26171715
8.190097792,0.464648992,-1.075985329,0.369849839,1.228996345
8.200160792,0.218338541,-1.106999545,-0.024546611,1.128593039
8.210223792,0.023121352,-0.976238554,-0.518132889,1.105458277
8.220285792,-0.102890676,-0.690955826,-1.032035902,1.246236152
8.230348792,-0.228106607,-0.410022841,-1.471920766,1.544895496
8.240411792,-0.288575003,-0.182130243,-1.706318684,1.740106436
8.250473792,-0.307444991,0.052692769,-1.777002751,1.804172311
8.260536792,-0.339552491,0.229218747,-1.781784604,1.828276101
8.270598792,-0.267145981,0.330793069,-1.665857706,1.719265229
8.280661792,-0.137825013,0.387007031,-1.490102098,1.545695455
8.290724792,-0.145697411,0.461410511,-1.438738986,1.517925316
8.300786792,-0.237591522,0.529892224,-1.456330919,1.56784414
8.310849792,-0.387080706,0.626651949,-1.542018941,1.708902148
8.320911792,-0.51591504,0.792312339,-1.684337831,1.931559241
8.330974792,-0.554919477,0.975329604,-1.74019102,2.070620257
8.341037792,-0.58791356,1.181751227,-1.716912085,2.1656328
8.351099792,-0.530001567,1.391434135,-1.665788124,2.234242755
8.361162792,-0.427647665,1.570644278,-1.493888755,2.209413855
8.371225792,-0.318877613,1.68346338,-1.254552863,2.123590066
8.381287792,-0.196909957,1.691193691,-0.939085638,1.944425743
8.391350792,-0.124059351,1.580272595,-0.518996522,1.667935727
8.401412792,-0.038050756,1.410032373,-0.034200949,1.410960261
8.411475792,-0.042289402,1.246892718,0.304376811,1.28420212
8.421538792,-0.100785971,1.116479343,0.486674284,1.222103021
8.431600792,-0.154748463,1.09526506,0.638298433,1.277097306
8.441663792,-0.131196316,1.016905062,0.562108628,1.16930513
8.451725792,-0.120158674,0.996799995,0.414949413,1.086384533
8.461788792,-0.085892528,0.97338102,0.259202977,1.01095713
8.471851792,-0.033992788,0.976939927,0.186385846,0.995141605
8.481913792,-0.034753365,1.000461522,0.237848361,1.028932892
8.491976792,-0.124153784,1.032593141,0.246692859,1.06888733
8.502039792,-0.242997126,1.025638463,0.259383656,1.085477656
8.512101792,-0.372738948,1.072244865,0.287500577,1.171025173
8.522164792,-0.424724934,1.172083733,0.356145719,1.296538206
8.532226792,-0.368969979,1.218418824,0.51074844,1.371695026
8.542289792,-0.32505929,1.304708524,0.678595689,1.506127479
8.552352792,-0.318493305,1.43866385,0.734374033,1.646358672
8.562414792,-0.332874386,1.56546306,0.721180376,1.755443272
8.572477792,-0.354104749,1.656516487,0.643849779,1.812175373
8.582539792,-0.211081269,1.629211744,0.611716406,1.753021155
8.592602792,0.05740504,1.486633822,0.698829979,1.643696687
8.602665792,0.356497575,1.235010298,1.009007227,1.634147039
8.612727792,0.726425913,0.853557537,1.442719771,1.826936073
8.622790792,1.140711228,0.357554314,1.914411734,2.256997891
8.632853792,1.385193401,-0.147425264,2.233431727,2.632244716
8.642915792,1.387168737,-0.583606501,2.284972594,2.736043385
8.652978792,1.139488722,-0.954007732,1.991739407,2.485073674
8.663040792,0.790252219,-1.182232161,1.469540949,2.044925928
8.673103792,0.40021633,-1.192546064,0.662456789,1.421684994
8.683166792,0.066909396,-0.981486722,-0.249855033,1.014997828
8.693228792,-0.303618865,-0.691613053,-1.059082198,1.300833629
8.703291792,-0.67632083,-0.498768957,-1.799860101,1.986372755
8.713353792,-0.966522089,-0.251364784,-2.311777984,2.518266597
8.723416792,-1.10072826,0.013863748,-2.602650651,2.825877796
8.733479792,-1.14319074,0.253654554,-2.658170548,2.90466803
8.743541792,-1.093169711,0.448381746,-2.493261525,2.759061297
8.753604792,-0.856060292,0.535615479,-2.150087854,2.375415952
8.763667792,-0.579200478,0.513986043,-1.67369239,1.844153211
8.773729792,-0.379113582,0.394861011,-1.214634506,1.332283495
8.783792792,-0.186236011,0.211123369,-0.831984528,0.878325215
8.793854792,0.034519769,0.102457252,-0.411213042,0.42518851
8.803917792,0.176084514,0.002650543,-0.0095333,0.176362312
8.813980792,0.266193177,-0.110594237,0.278934406,0.401116312
8.824042792,0.210715964,-0.204770662,0.321832504,0.435784811
8.834105792,0.066107889,-0.226926639,0.168396887,0.290212791
8.844167792,-0.16012527,-0.158527664,-0.159269384,0.275930895
8.854230792,-0.368976995,0.02134146,-0.595444189,0.700823276
8.864293792,-0.544280175,0.245239533,-1.005062111,1.168988103
8.874355792,-0.751618203,0.494485287,-1.313140209,1.591786051
8.884418792,-0.91699208,0.699551525,-1.501474348,1.893323012
8.894481792,-1.026774869,0.947914056,-1.574547002,2.105232992
8.904543792,-1.132183649,1.156588904,-1.585363766,2.265593957
8.914606792,-1.212705948,1.355546556,-1.46057132,2.332687455
8.924668792,-1.275836874,1.494689823,-1.237535711,2.322359152
8.934731792,-1.351031775,1.596839511,-1.121874277,2.3735596
8.944794792,-1.39808505,1.682488357,-1.076571804,2.438117251
8.954856792,-1.374234111,1.724356467,-0.973688291,2.410392812
8.964919792,-1.238342481,1.742398051,-0.756619765,2.267579445
8.974982792,-1.021467205,1.727963907,-0.364855732,2.040189751
8.985044792,-0.871284834,1.651982263,0.064425207,1.868778549
8.995107792,-0.806289523,1.507444647,0.47605691,1.774576665
9.005169792,-0.708998141,1.35834211,0.906997873,1.780566424
9.015232792,-0.631755983,1.225413848,1.280230325,1.881420848
9.025295792,-0.576923134,1.127254885,1.49929626,1.962506854
9.035357083,-0.5425513,1.006961287,1.543812867,1.9213774
9.045420083,-0.527070212,0.839947851,1.50320103,1.800813355
9.055482083,-0.50797072,0.712178003,1.452994498,1.696002586
9.065545083,-0.509331806,0.708215929,1.430886176,1.675835296
9.075608083,-0.732569729,0.902404885,1.360588025,1.789467172
9.085670083,-1.130985408,1.157750453,1.225526115,2.030130135
9.095733083,-1.552823572,1.314929457,0.96360886,2.251409017
9.105796083,-1.692221486,1.323931831,0.595923076,2.229693558
9.115858083,-1.359036905,1.193995004,0.249866728,1.826208849
9.125921083,-0.829096734,1.00265452,0.208233383,1.317603363
9.135983083,-0.357384598,0.85035034,0.631009879,1.117583517
9.146046083,-0.095838934,0.607548218,1.253994454,1.396711147
9.156109083,-0.058871668,0.067802266,1.685057623,1.687448433
9.166171083,-0.249062735,-0.556982959,1.728504775,1.833027828
9.176234083,-0.592283038,-0.981645766,1.574704292,1.947850409
9.186297083,-1.06103736,-1.180734689,1.211833105,1.997116461
9.196359083,-1.465912021,-1.18444884,0.738250737,2.024063057
9.206422083,-1.755937279,-0.971656383,0.370789486,2.040812754
9.216484083,-1.838682397,-0.703061024,0.112220932,1.971710247
9.226547083,-1.734927941,-0.453756214,0.119574975,1.797266768
9.236610083,-1.492114271,-0.264171356,0.397172123,1.566504771
9.246672083,-1.14522484,-0.350273945,0.739976251,1.407762985
9.256735083,-0.833583156,-0.597399498,1.16432097,1.551576733
9.266797083,-0.643324992,-0.951131487,1.582275267,1.95502255
9.276860083,-0.615756247,-1.312018129,1.787230116,2.301029946
9.286923083,-0.685816416,-1.602804256,1.763524919,2.479787446
9.296985083,-0.833072402,-1.799185333,1.507240872,2.490552656
9.307048083,-1.016108086,-1.935614907,1.14382297,2.467268064
9.317111083,-1.137831329,-1.979575444,0.762214966,2.407145763
9.327173083,-1.234798629,-1.893337784,0.400024395,2.295533736
9.337236083,-1.325010642,-1.751006615,0.050069708,2.196402591
9.347298083,-1.453320188,-1.641854301,-0.285890839,2.211234652
9.357361083,-1.579633202,-1.554577006,-0.564870268,2.28714432
9.367424083,-1.689816672,-1.451488255,-0.780620247,2.360437779
9.377486083,-1.76707184,-1.366927577,-0.938597395,2.423220782
9.387549083,-1.827508661,-1.313654764,-1.029326302,2.474871589
9.397611083,-1.882532129,-1.251591248,-1.028390163,2.483544684
9.407674083,-1.934513292,-1.205856081,-0.951552486,2.470198919
9.417737083,-2.032471696,-1.089377207,-0.8232751,2.448564024
9.427799083,-2.019956023,-0.971517804,-0.682105188,2.342933346
9.437862083,-1.833195955,-0.945353268,-0.542860764,2.13283802
9.447925083,-1.48286266,-0.95923105,-0.343272489,1.79912253
9.457987083,-1.016874364,-1.009538739,0.08341404,1.435325691
9.468050083,-0.518126457,-1.097330005,0.730456983,1.416388213
9.478112083,-0.072779416,-1.190198407,1.426504272,1.85924273
9.488175083,0.1083606,-1.244683347,1.94299117,2.310020203
9.498238083,0.130677668,-1.295595639,2.109824511,2.479315265
9.508300083,0.088159932,-1.363094142,1.773973308,2.23892365
9.518363083,-0.135639031,-1.24569667,1.187271291,1.726201396
9.528425083,-0.262355796,-1.034818591,0.56766933,1.209102373
9.538488083,-0.475732389,-0.73710059,0.058060513,0.87920965
9.548551083,-0.559318629,-0.375536841,-0.252105042,0.719320651
9.558613083,-0.617573854,-0.010117437,-0.319904677,0.695585243
9.568676083,-0.563688546,0.227636198,-0.314108332,0.684271189
9.578739083,-0.340922201,0.294820706,-0.178880945,0.484918125
9.588801083,-0.104998451,0.271354076,0.171086022,0.337532422
9.598864083,-0.029441316,0.332399007,0.664799184,0.743850688
9.608926083,-0.018685362,0.548981044,1.099632053,1.229194851
9.618989083,0.085167035,0.619338836,1.146440184,1.305817412
9.629052083,0.154240193,0.611381945,1.006639105,1.187813204
9.639114083,0.27293107,0.470057666,0.768143458,0.941004756
9.649177083,0.368265243,0.434470342,0.71739255,0.915988994
9.659240083,0.486294215,0.380301737,0.771391586,0.988006302
9.669302083,0.706662909,0.210338965,0.940494232,1.195049935
9.679365083,0.812253976,-0.061382316,1.144504171,1.404782584
9.689427083,0.770686704,-0.365849174,1.227532294,1.494870947
9.699490083,0.550626743,-0.584038026,1.289617445,1.51901395
9.709553083,0.219430801,-0.613239605,1.161639436,1.33177283
9.719615083,-0.147896549,-0.535552329,0.812691055,0.984457433
9.729678083,-0.362769445,-0.43526381,0.416272638,0.703092571
9.739741083,-0.56799619,-0.331928891,0.044590282,0.6593821
9.749803083,-0.809923275,-0.202872071,-0.194553822,0.857312066
9.759866083,-0.889311507,-0.13621849,-0.379018273,0.976260869
9.769928083,-0.904526401,-0.032970987,-0.431129828,1.002560733
9.779991083,-0.803202486,0.007695521,-0.458287806,0.924781686
9.790054083,-0.653212049,-0.008460336,-0.455837823,0.796583755
9.800116083,-0.437921369,-0.070397845,-0.349456505,0.56466878
9.810179083,-0.227216953,-0.137454299,-0.123464543,0.292856145
9.820241083,-0.012366569,-0.221915283,0.191704473,0.293513083
9.830304083,0.103946537,-0.315766602,0.540697294,0.634718042
9.840367083,0.162524236,-0.449030202,0.873270548,0.995310856
9.850429083,0.147617345,-0.599159802,1.047248603,1.215529919
9.860492083,0.0704455,-0.710290521,1.046841636,1.2670251
9.870555083,-0.100265715,-0.739625418,0.875812917,1.150715968
9.880617083,-0.198483151,-0.78194581,0.571936044,0.988911345
9.890680083,-0.260906271,-0.673182921,0.186729662,0.745731382
9.900742083,-0.315590601,-0.479127283,-0.206513717,0.609760851
9.910805083,-0.424492069,-0.294216104,-0.549987935,0.754482181
9.920868083,-0.510140037,-0.161732231,-0.875849755,1.026407797
9.930930083,-0.668848088,-0.037758687,-1.160218563,1.339735271
9.940993083,-0.820395639,0.054579373,-1.407206122,1.629802743
9.951056083,-0.901792096,0.087231102,-1.610353011,1.847721589
9.961118083,-0.951149613,0.101675479,-1.738200043,1.984026935
9.971181083,-0.979852133,0.161600084,-1.73034197,1.995070957
9.981243083,-0.909973228,0.230527062,-1.623047317,1.874960425
9.991306083,-0.790915147,0.212691885,-1.373955345,1.599543028
10.00136908,-0.706575201,0.162303504,-1.051372059,1.277095982
10.01143108,-0.730322205,0.129338948,-0.870734611,1.143799742
10.02149408,-0.647803667,0.042417749,-0.759510044,0.999151822
10.03155767,-0.52431895,-0.060782099,-0.635780622,0.826330336
10.04161967,-0.413311315,-0.042619185,-0.500264382,0.650313071
10.05168267,-0.298782487,0.028328006,-0.323182626,0.441044737
10.06174467,-0.221854764,0.099530428,-0.167246155,0.29512221
10.07180767,-0.166874857,0.157983873,-0.06046021,0.237616412
10.08187067,-0.058871521,0.266576316,0.037106431,0.275509846
10.09193267,0.076392411,0.417331861,0.11690806,0.440078603
10.10199567,0.26286041,0.555309486,0.231910513,0.656693769
10.11205867,0.569454485,0.69158674,0.369722369,0.969156984
10.12212067,0.819502476,0.807496096,0.540100878,1.270961531
10.13218367,1.084348601,0.888148203,0.780279354,1.604199174
10.14224567,1.383962562,0.944019518,1.217931166,2.071202924
10.15230867,1.628925815,1.044071226,1.627887057,2.528537187
10.16237167,1.788752438,1.130585751,1.878219223,2.829411047
10.17243367,1.855826726,1.212306145,2.008264807,2.991138005
10.18249667,1.989531206,1.214294783,2.05685517,3.108600879
10.19255867,2.18960246,1.064107295,2.099153928,3.214518701
10.20262167,2.458876973,0.777223599,2.14887748,3.356758394
10.21268467,2.814199989,0.334830864,2.20675439,3.591879484
10.22274667,3.167077408,-0.202901307,2.260403178,3.896276527
10.23280967,3.475229181,-0.896543051,2.350221089,4.290052035
10.24287267,3.373452253,-1.542459821,2.496070527,4.47098764
10.25293467,2.759303405,-1.916464984,2.40821085,4.133530309
10.26299767,1.964404843,-2.199620202,1.815362824,3.463056108
10.27305967,1.279980649,-2.352515536,0.905551856,2.827137063
10.28312267,0.82935635,-2.218915429,-0.056113974,2.369507631
10.29318567,0.59282566,-1.864181228,-0.81903236,2.120714012
10.30324767,0.582118092,-1.450927507,-1.295321989,2.030249039
10.31331067,0.899735046,-1.078244108,-1.516066074,2.066540552
10.32337367,1.318370836,-0.747219781,-1.604305236,2.206860746
10.33343567,1.622994546,-0.471386154,-1.572001124,2.308138587
10.34349867,1.821595518,-0.295410106,-1.486852216,2.369853766
10.35356067,1.972441256,-0.313549923,-1.340959507,2.405620598
10.36362367,1.96097165,-0.493995582,-1.137547739,2.320227641
10.37368667,1.895911436,-0.779334444,-0.767469274,2.188801369
10.38374867,1.737629062,-1.002854787,-0.444718757,2.054956753
10.39381167,1.510263882,-1.302986519,-0.282846193,2.01461481
10.40387367,1.236295224,-1.565220693,-0.240560299,2.009032343
10.41393667,0.973376342,-1.725945448,-0.30909259,2.005464391
10.42399967,0.841056775,-1.806460438,-0.396424264,2.03170569
10.43406167,0.852379908,-1.708652308,-0.428204466,1.956886119
10.44412467,0.933431965,-1.553325702,-0.496682378,1.879044798
10.45418767,1.032056659,-1.493316897,-0.594798072,1.910214922
10.46424967,0.980942346,-1.462651175,-0.764161504,1.919775807
10.47431267,0.864396814,-1.472304343,-1.051258038,2.00499511
10.48437467,0.760355259,-1.524972553,-1.394469717,2.201869024
10.49443767,0.628860588,-1.526563581,-1.666258825,2.345694029
10.50450067,0.51312124,-1.479682944,-1.892984612,2.456856887
10.51456267,0.444755156,-1.39602683,-2.062316469,2.529791943
10.52462567,0.495375525,-1.302198607,-2.099172639,2.519453093
10.53468867,0.6640446,-1.22610382,-1.980149056,2.421833209
10.54475067,0.849310266,-1.200971317,-1.797093784,2.322327733
10.55481367,0.999478312,-1.210478598,-1.536703822,2.196741671
10.56487567,1.113955393,-1.233256719,-1.361189704,2.148175077
10.57493867,1.169437429,-1.28711396,-1.234670575,2.132758232
10.58500167,1.189201895,-1.274970755,-1.09004262,2.056196607
10.59506367,1.183020804,-1.186671367,-0.982732179,1.942547217
10.60512667,1.192601028,-1.02867843,-0.880826905,1.80453112
10.61518967,1.232779293,-0.78547022,-0.831305081,1.681599355
10.62525167,1.27136697,-0.577414592,-0.923328561,1.67401231
10.63531467,1.411010028,-0.390402217,-0.945839757,1.742979069
10.64537667,1.479432976,-0.154465896,-0.982470809,1.782647058
10.65543967,1.601205481,0.044086252,-0.950435668,1.862560214
10.66550267,1.709899519,0.230514198,-0.870867927,1.932693485
10.67556467,1.773179256,0.303844714,-0.776495621,1.959446793
10.68562767,1.772641312,0.246442598,-0.603643155,1.888749913
10.69568967,1.632092959,0.267951873,-0.200302219,1.666027195
10.70575267,1.45932294,0.464770614,0.215057083,1.546571923
10.71581567,1.42600492,0.546776059,0.382177523,1.574329619
10.72587767,1.438773192,0.617740792,0.388500702,1.613259056
10.73594067,1.648551994,0.691422434,0.326243058,1.817202023
10.74600367,2.073210416,0.646632762,0.47326194,2.222681314
10.75606567,2.372328241,0.464291727,0.99248475,2.613146393
10.76612867,2.670470166,0.06068065,1.710247428,3.171756503
10.77619067,2.998359801,-0.458212962,2.534392009,3.952627413
10.78625367,2.908258593,-0.871704956,3.145927151,4.372035592
10.79631667,2.466259083,-1.169299874,3.301289425,4.283480819
10.80637867,1.747762579,-1.38113865,2.929039305,3.679876255
10.81644167,1.055468034,-1.40625361,2.126440544,2.759222966
10.82650467,0.6225741,-1.283901792,1.220659477,1.877767792
10.83656667,0.461317248,-0.986663847,0.392745196,1.157828977
10.84662967,0.464965911,-0.4965093,-0.289706731,0.739354295
10.85669167,0.515349906,-0.041325781,-0.768875529,0.926532744
10.86675467,0.660971596,0.277836884,-1.058988057,1.278879389
10.87681767,0.811419286,0.439074148,-1.214829803,1.525450365
10.88687967,0.961483982,0.449914593,-1.134178573,1.553459245
10.89694267,1.071124538,0.320606635,-0.875907642,1.420320594
10.90700567,1.214776593,0.137723856,-0.631923798,1.376218631
10.91706767,1.373437282,-0.01874705,-0.33891339,1.414759239
10.92713067,1.481269879,-0.130851038,-0.078233991,1.489094693
10.93719267,1.501698004,-0.216993096,0.075786347,1.51918612
10.94725567,1.434032562,-0.250367542,0.042080657,1.456332406
10.95731867,1.240956332,-0.185540046,-0.203958483,1.271218624
10.96738067,1.026331358,-0.060893489,-0.57488421,1.177945639
10.97744367,0.873659388,0.12565491,-1.033502383,1.359116279
10.98750667,0.813051243,0.386372901,-1.453979169,1.71008531
10.99756867,0.768405705,0.593693825,-1.706290033,1.963248676
11.00763167,0.639760529,0.740006364,-1.893997934,2.131696772
11.01769367,0.561106415,0.840329089,-2.005956327,2.246075282
11.02775667,0.472729259,0.886859185,-2.036742502,2.271191798
11.03781958,0.398231346,0.914251636,-2.021495302,2.254082411
11.04788158,0.3221962,0.935441068,-1.955786047,2.191793659
11.05794458,0.19698831,1.00386811,-1.94888107,2.201066333
11.06800658,0.140351594,1.112373136,-1.946227604,2.246079796
11.07806958,0.131960401,1.169477337,-1.867149859,2.207111095
11.08813258,0.183518956,1.174251004,-1.634264615,2.020733891
11.09819458,0.284858805,1.203818034,-1.227093753,1.742435502
11.10825758,0.3973414,1.19455429,-0.755475465,1.468190492
11.11832058,0.478829659,1.179214413,-0.317369909,1.311696662
11.12838258,0.549594417,1.162632878,0.078215865,1.288366002
11.13844558,0.600335385,1.17579233,0.468431556,1.400827719
11.14850758,0.704244354,1.215306059,0.814774418,1.623818426
11.15857058,0.903729571,1.286927434,1.048656027,1.890129314
11.16863358,1.124648488,1.412316881,1.185076831,2.159601882
11.17869558,1.350567506,1.56642785,1.140060872,2.361666274
11.18875858,1.597259049,1.708317555,1.03676396,2.558215168
11.19882158,1.839608158,1.742670824,0.982014141,2.717611368
11.20888358,1.863557622,1.808702261,0.934754605,2.760075552
11.21894658,1.474359201,1.953724026,0.760065529,2.562903087
11.22900858,1.004178597,2.002883323,0.510344397,2.297905059
11.23907158,0.877128687,1.836267205,0.289282808,2.055460173
11.24913458,1.149558066,1.703588327,0.302326777,2.077281496
11.25919658,1.766323981,1.551621823,0.676233414,2.446369211
11.26925958,2.59252912,1.16209435,1.344317563,3.143065419
11.27932258,3.348877867,0.643455969,2.073086455,3.990827734
11.28938458,3.782649175,0.082962635,2.688419949,4.641435058
11.29944758,3.591274484,-0.514028728,2.917790431,4.655639479
11.30950958,3.005129999,-0.989248901,2.405642168,3.974485368
11.31957258,2.32092683,-1.351176055,1.583458743,3.117646496
11.32963558,1.722893494,-1.608419045,0.701279377,2.459098733
11.33969758,1.234724954,-1.712787459,-0.103129681,2.113958922
11.34976058,0.995388477,-1.594493316,-0.68173272,1.9994916
11.35982258,1.097289951,-1.408079403,-0.819245784,1.96415287
11.36988558,1.363734705,-1.304760857,-0.631989872,1.990372939
11.37994858,1.60072674,-1.376942688,-0.261177582,2.127559868
11.39001058,1.711121295,-1.590544984,0.144625617,2.340659309
11.40007358,1.706147946,-1.840393877,0.401077479,2.541427469
11.41013658,1.57027795,-2.062009782,0.503952806,2.640383611
11.42019858,1.256751416,-2.250758488,0.469182338,2.620204183
11.43026158,0.852028491,-2.356082922,0.187891504,2.512445522
11.44032358,0.476229987,-2.339948408,-0.210540109,2.397181822
11.45038658,0.208547378,-2.252722276,-0.593660789,2.338949079
11.46044958,0.03701346,-2.050611513,-1.026647108,2.293552235
11.47051158,-0.004371963,-1.797604538,-1.445601863,2.306765254
11.48057458,-0.049154034,-1.555431869,-1.781334368,2.365361822
11.49063758,-0.091280299,-1.343039947,-1.96281557,2.380070031
11.50069958,-0.085857006,-1.148826433,-2.019149984,2.324680678
11.51076258,-0.092300784,-0.981822352,-2.10478772,2.324354945
11.52082458,-0.153655764,-0.786673284,-2.195914822,2.337628468
11.53088758,-0.147824336,-0.646549146,-2.184285294,2.282757123
11.54095058,-0.052509166,-0.532585744,-2.089874396,2.157308457
11.55101258,0.060456994,-0.455553063,-1.900714631,1.955479417
11.56107558,0.20281813,-0.447716332,-1.66434854,1.73540807
11.57113858,0.33108353,-0.409833099,-1.441035188,1.534327829
11.58120058,0.463556586,-0.345662539,-1.238515704,1.366853485
11.59126358,0.625887718,-0.281322117,-1.072942438,1.27361024
11.60132558,0.725480711,-0.184041405,-0.942374697,1.203438228
11.61138858,0.77545657,-0.064474908,-0.878140694,1.173294927
11.62145158,0.874530038,0.000595247,-0.763375638,1.160838278
11.63151358,1.015517225,0.118263153,-0.55880729,1.165129604
11.64157658,1.137943303,0.25554145,-0.32654419,1.211134799
11.65163958,1.151081412,0.399313081,-0.248237109,1.243407019
11.66170158,1.05761747,0.533755479,-0.418098139,1.256286463
11.67176458,0.913361397,0.681405276,-0.784719729,1.383592153
11.68182658,0.809493213,0.869061137,-1.141522091,1.647306652
11.69188958,0.750736881,1.090290542,-1.322629656,1.871279919
11.70195258,0.735406798,1.288680722,-1.393487384,2.035516704
11.71201458,0.809605772,1.370524491,-1.327907352,2.072953647
11.72207758,0.939500352,1.36495765,-1.078889641,1.977314632
11.73214058,1.090974958,1.298798159,-0.659526749,1.819911687
11.74220258,1.239020611,1.135295683,-0.258248127,1.70022365
11.75226558,1.350026638,0.859309151,0.098755379,1.603351729
11.76232758,1.538486346,0.586794988,0.46677387,1.711474931
11.77239058,1.614324733,0.466592606,0.818641766,1.869205003
11.78245358,1.456594336,0.587612429,0.951623238,1.836448261
11.79251558,1.246233444,0.720417314,0.797460812,1.645613154
11.80257858,1.142355612,0.847265056,0.457432943,1.494014497
11.81264158,1.141154301,0.923659514,0.107471824,1.472049669
11.82270358,1.514747235,0.924413512,-0.019171851,1.774645623
11.83276658,2.02951622,0.790814575,0.189209467,2.186349469
11.84282858,2.759722651,0.40219839,0.608572358,2.854503979
11.85289158,3.092500557,0.005538483,1.466481101,3.422595096
11.86295458,3.272286359,-0.662533972,2.26817062,4.036261542
11.87301658,2.984911789,-1.173699903,3.029378695,4.411848267
11.88307958,2.418368633,-1.573596829,3.252827702,4.348057254
11.89314258,1.811921153,-1.765159215,3.039558113,3.954460626
11.90320458,1.461255737,-1.898819256,2.588651832,3.527307926
11.91326758,1.311779855,-1.949418429,1.970972435,3.066876414
11.92332958,1.220488154,-1.85449093,1.297100127,2.571224743
11.93339258,1.174345144,-1.536903212,0.681183667,2.050650918
11.94345558,1.254723894,-1.249496483,0.152884809,1.777342757
11.95351758,1.322541947,-1.057176298,-0.230416549,1.708751214
11.96358058,1.343511232,-0.933401852,-0.446799197,1.695845208
11.97364358,1.315661236,-0.87006335,-0.532962012,1.664939407
11.98370558,1.190250447,-0.81677972,-0.572998483,1.553110589
11.99376858,1.064655471,-0.793126564,-0.6799692,1.491609577
12.00383058,0.981477659,-0.84361464,-0.831462371,1.538282721
12.01389358,0.956121501,-0.897748162,-1.029543234,1.667356997
12.02395658,0.912422627,-0.864327524,-1.26784066,1.78521625
12.03401829,0.798766203,-0.768665322,-1.592145951,1.940052204
12.04408129,0.750740975,-0.68020572,-1.920185274,2.171037383
12.05414429,0.596436754,-0.522709504,-2.24365266,2.379693107
12.06420629,0.407707636,-0.381418847,-2.60328215,2.662477006
12.07426929,0.220855182,-0.282855841,-2.881842334,2.904100494
12.08433129,0.049375935,-0.202736415,-3.09946693,3.106482784
12.09439429,-0.087802083,-0.135450458,-3.203653788,3.207717822
12.10445729,-0.180146867,-0.00480992,-3.188893661,3.193981655
12.11451929,-0.265431723,0.187995292,-3.074204035,3.091363239
12.12458229,-0.245825132,0.374441072,-2.961651565,2.995332387
12.13464529,-0.198299548,0.567902634,-2.743993641,2.809152401
12.14470729,-0.159989761,0.743754137,-2.530578455,2.642459888
12.15477029,-0.163677307,0.874418356,-2.32202406,2.486602795
12.16483229,-0.165085024,0.926826073,-2.059649554,2.264600609
12.17489529,-0.013634245,0.963716742,-1.689276389,1.944888318
12.18495829,0.089693657,1.044740147,-1.242654364,1.625951043
12.19502029,0.173862864,1.019571392,-0.777235878,1.293773446
12.20508329,0.29109603,0.906526587,-0.269474196,0.989516899
12.21514629,0.372674628,0.919953256,0.228112162,1.018447608
12.22520829,0.470852011,0.930047012,0.512803736,1.161747276
12.23527129,0.484410534,0.968288095,0.648930425,1.262278138
12.24533329,0.492503958,1.063281668,0.626544945,1.328791414
12.25539629,0.483495153,1.208556033,0.477339204,1.38644436
12.26545929,0.515319209,1.392759114,0.401901351,1.538459142
12.27552129,0.559658645,1.568535187,0.362764767,1.704440878
12.28558429,0.565968668,1.716898929,0.310255601,1.834208549
12.29564729,0.60467168,1.768452952,0.325195237,1.897051825
12.30570929,0.479397424,1.893048931,0.432299856,2.000084826
12.31577229,0.079409866,2.15057785,0.46573482,2.201862834
12.32583429,-0.014280655,2.262579512,0.63171973,2.349157254
12.33589729,0.218137397,2.378056759,1.067313908,2.61570198
12.34596029,0.825684153,2.055533114,1.517883389,2.685319476
12.35602229,1.410716205,1.673868099,2.319826092,3.189599931
12.36608529,1.918345448,1.081168301,3.02674277,3.743012951
12.37614829,2.31758427,0.533056737,3.716137682,4.411918585
12.38621029,2.18566436,-0.021088568,3.851623515,4.428608938
12.39627329,1.47843281,-0.424444122,3.28554989,3.627775416
12.40633529,0.618419946,-0.589527392,2.196983693,2.357270269
12.41639829,-0.040817658,-0.624527655,0.99718825,1.177321231
12.42646129,-0.433639453,-0.494726484,0.00046193,0.657873607
12.43652329,-0.491656696,-0.204077182,-0.72232643,0.897289961
12.44658629,-0.591346753,0.224995303,-1.025440827,1.204924379
12.45664929,-0.516751484,0.508178881,-1.036662219,1.264889887
12.46671129,-0.355338804,0.667745011,-0.89066543,1.168517853
12.47677429,-0.10686079,0.720116767,-0.733473562,1.033426753
12.48683629,0.142921446,0.615218888,-0.579980058,0.857495007
12.49689929,0.372997395,0.377645931,-0.318970292,0.619262104
12.50696229,0.500533062,0.110814969,-0.020877483,0.513078135
12.51702429,0.597155669,-0.164986499,0.216919422,0.656406485
12.52708729,0.65037381,-0.398774845,0.507956395,0.916529961
12.53715029,0.534490474,-0.595931847,0.623945273,1.014949524
12.54721229,0.315734735,-0.783673078,0.492715042,0.978059317
12.55727529,0.107103741,-0.962875912,0.147901812,0.980038866
12.56733729,-0.06127385,-1.065610029,-0.25654951,1.097769042
12.57740029,-0.17169764,-1.020175702,-0.674409083,1.234935688
12.58746329,-0.161255683,-0.855290945,-1.068571059,1.378176369
12.59752529,-0.190862767,-0.705084745,-1.42081727,1.597590313
12.60758829,-0.227230694,-0.592715294,-1.740038407,1.852209186
12.61765129,-0.300481688,-0.4959123,-1.995020864,2.077577075
12.62771329,-0.377386607,-0.431526269,-2.204891467,2.278197084
12.63777629,-0.394880015,-0.427132087,-2.265858046,2.339334249
12.64783829,-0.343220449,-0.415901924,-2.129131433,2.196355014
12.65790129,-0.339781117,-0.435730125,-1.884352952,1.963694986
12.66796429,-0.305916383,-0.466292059,-1.65454042,1.746000321
12.67802629,-0.211754284,-0.527917619,-1.43895241,1.547294712
12.68808929,-0.080809105,-0.57276284,-1.163285428,1.29916141
12.69815229,0.034240418,-0.598610457,-0.922728052,1.100424438
12.70821429,0.113417857,-0.616490657,-0.743944756,0.972819686
12.71827729,0.138679291,-0.582787891,-0.710289352,0.929184931
12.72833929,0.094991527,-0.460539276,-0.87873711,0.996643729
12.73840229,-0.00837292,-0.274315106,-1.169924941,1.201683507
12.74846529,-0.145338392,-0.050804118,-1.477454571,1.485454918
12.75852729,-0.24443905,0.136635396,-1.594469635,1.618874021
12.76859029,-0.141659909,0.325534376,-1.623206946,1.661577849
12.77865329,-0.001769075,0.558615794,-1.454835786,1.558397221
12.78871529,0.10912834,0.768340509,-1.182145037,1.414115632
12.79877829,0.162990844,0.947525217,-0.90615178,1.321166568
12.80884029,0.229467254,1.048594047,-0.633846363,1.246581689
12.81890329,0.310694143,1.116260365,-0.38305636,1.22036889
12.82896629,0.435318189,1.201049085,-0.139756055,1.285127459
12.83902829,0.660152401,1.271675557,0.11203616,1.437188928
12.84909129,0.916951003,1.338157814,0.359349993,1.661504708
12.85915429,1.228112046,1.344632728,0.675332358,1.942259036
12.86921629,1.337140398,1.426571808,1.012282253,2.201764503
12.87927929,1.225771698,1.666460554,1.153125306,2.368397138
12.88934129,0.996669895,1.794447334,0.900882854,2.241647169
12.89940429,0.915824245,1.806051133,0.574671371,2.104947013
12.90946729,1.104697496,1.808217819,0.402508292,2.156854461
12.91952929,1.442398466,1.873067241,0.547218693,2.42659072
12.92959229,1.895870213,1.83675954,0.884246941,2.783864603
12.93965529,2.349386398,1.482564452,1.308018633,3.070590586
12.94971729,2.632498932,0.941230981,1.956633309,3.412386305
12.95978029,2.640108499,0.380408741,2.473745273,3.637897658
12.96984229,2.296630188,-0.059784564,2.640007927,3.499675166
12.97990529,1.808070469,-0.485460986,2.505192769,3.12742418
12.98996829,1.379356418,-0.758389133,2.182917046,2.691264579
13.00003029,1.046160143,-0.948299388,1.855976415,2.332031566
13.01009329,0.829792407,-1.031566955,1.425793251,1.945654701
13.02015629,0.562560618,-0.878131338,0.977136979,1.429120629
13.03021854,0.364271887,-0.722004541,0.481338699,0.941101221
13.04028154,0.188235613,-0.600989396,-0.041092477,0.631117653
13.05034354,0.022601243,-0.463203852,-0.538923249,0.710990079
13.06040654,-0.056644317,-0.377883328,-0.996750294,1.06748093
13.07046954,-0.107672968,-0.301378359,-1.355716125,1.392978318
13.08053154,-0.088509888,-0.244953897,-1.546269282,1.568051372
13.09059454,-0.093533816,-0.214988086,-1.560042983,1.577562221
13.10065754,-0.04221105,-0.174568916,-1.463489081,1.474468165
13.11071954,0.109824743,-0.311675013,-1.355286355,1.394992434
13.12078254,0.128719728,-0.326113835,-1.141592258,1.194216012
13.13084454,0.151132983,-0.391083125,-1.033849708,1.115630946
13.14090754,0.069326051,-0.408825039,-0.992264895,1.075422538
13.15097054,-0.0992062,-0.441989862,-1.047892381,1.141610858
13.16103254,-0.33253554,-0.481607671,-1.182204679,1.319141288
13.17109554,-0.544791222,-0.484198573,-1.286326632,1.47847284
13.18115854,-0.694084671,-0.445769502,-1.31102761,1.548953638
13.19122054,-0.832845238,-0.352222238,-1.359310409,1.632610328
13.20128354,-1.012079939,-0.209377683,-1.471205066,1.797940256
13.21134554,-1.120480008,-0.115065603,-1.59638109,1.953752319
13.22140854,-1.219874781,-0.04797962,-1.741951616,2.127155838
13.23147154,-1.371090502,0.033769132,-1.801803131,2.264403683
13.24153354,-1.398580017,0.089255116,-1.740475194,2.234557326
13.25159654,-1.374886222,0.155914251,-1.618726224,2.129529518
13.26165954,-1.315711815,0.205255396,-1.432108828,1.95554674
13.27172154,-1.24958156,0.26426725,-1.194977337,1.749074638
13.28178454,-1.160322351,0.326581028,-0.999305527,1.565763284
13.29184654,-1.108776222,0.400087837,-0.861046944,1.459745466
13.30190954,-1.047670771,0.503698452,-0.782371488,1.401224936
13.31197254,-0.97228379,0.617264244,-0.745239329,1.371762579
13.32203454,-0.922247411,0.731801843,-0.698970312,1.369172641
13.33209754,-0.885445328,0.881365141,-0.585786343,1.379841868
13.34216054,-0.812262454,0.992132455,-0.379589546,1.337230469
13.35222254,-0.691856589,1.083523851,-0.106469026,1.28997098
13.36228554,-0.558718413,1.1926174,0.164289218,1.327212671
13.37234754,-0.443790512,1.304439552,0.434468588,1.444740641
13.38241054,-0.246971186,1.368566551,0.688577471,1.551808012
13.39247354,0.076764001,1.405571533,0.950729783,1.698649807
13.40253554,0.416968457,1.43529176,1.135459113,1.877016923
13.41259854,0.787376119,1.451716881,1.169899213,2.023884193
13.42266154,1.093056859,1.424175911,1.102693655,2.106889561
13.43272354,1.202669349,1.380361555,1.018634668,2.09509622
13.44278654,0.940360039,1.533630525,0.883862194,2.004373211
13.45284854,0.4928238,1.798415839,0.624841066,1.96662177
13.46291154,0.332859768,1.864643158,0.347951431,1.925814095
13.47297454,0.683845904,1.799354902,0.213947282,1.936774825
13.48303654,1.524121199,1.705208006,0.560910534,2.354846152
13.49309954,2.589270467,1.424826121,1.210909245,3.193861648
13.50316254,3.543516766,0.797635059,2.018816108,4.155520573
13.51322454,4.191776223,0.041830688,2.965898983,5.135104136
13.52328754,4.237585942,-0.76814492,3.363341832,5.464361766
13.53334954,3.628765662,-1.58393763,3.139556025,5.053079326
13.54341254,2.632492208,-1.815306106,2.662829025,4.161251002
13.55347554,2.010207545,-2.568294458,1.490085141,3.585725104
13.56353754,1.290499498,-2.667065625,0.219304501,2.970980051
13.57360054,0.910923108,-2.232052369,-0.464971173,2.455206076
13.58366354,0.877774658,-2.023398863,-1.128278148,2.477426667
13.59372554,0.862710769,-1.598310963,-1.55995469,2.394227734
13.60378854,1.168820987,-1.302862558,-1.681530583,2.427166753
13.61385054,1.54758052,-1.139863236,-1.659388931,2.539264714
13.62391354,1.866703424,-1.034806897,-1.463958027,2.588161528
13.63397654,2.037103275,-1.088742784,-1.145416337,2.578202705
13.64403854,1.986735067,-1.434229614,-0.885679509,2.605486328
13.65410154,1.91751719,-1.864946628,-0.63472286,2.749140085
13.66416454,1.738188056,-2.127341015,-0.369673837,2.771919238
13.67422654,1.500978796,-2.319692191,-0.210023215,2.770923846
13.68428954,1.246288408,-2.467518573,-0.145134324,2.768202788
13.69435154,0.936861942,-2.488844538,-0.255894037,2.671617336
13.70441454,0.674511116,-2.388476205,-0.430253915,2.518908942
13.71447754,0.509251553,-2.207991368,-0.665647615,2.361704845
13.72453954,0.419355875,-1.980208697,-0.986758572,2.251838874
13.73460254,0.32084871,-1.773164931,-1.271044934,2.205133327
13.74466554,0.211946365,-1.577705083,-1.424941311,2.136476616
13.75472754,0.117356542,-1.37533061,-1.509620104,2.045546309
13.76479054,0.00034177,-1.239907342,-1.56666437,1.997950846
13.77485354,-0.038208338,-1.100560884,-1.571447393,1.918890576
13.78491554,-0.087510599,-0.963805619,-1.590704613,1.861966848
13.79497854,0.036129068,-0.889550951,-1.512500442,1.75506803
13.80504054,0.122199206,-0.812333498,-1.461855369,1.676854041
13.81510354,0.19242485,-0.691433836,-1.388846449,1.563330589
13.82516654,0.290250815,-0.589065169,-1.294592257,1.451624063
13.83522854,0.389344748,-0.535567532,-1.182951953,1.355653804
13.84529154,0.470715478,-0.481535166,-1.055690228,1.252170529
13.85535454,0.513891026,-0.472375795,-0.916314826,1.151892243
13.86541654,0.557304848,-0.477070524,-0.794947679,1.08172399
13.87547954,0.546207125,-0.407284883,-0.752929587,1.015443826
13.88554154,0.479387191,-0.310932124,-0.768569135,0.957700047
13.89560454,0.376044087,-0.178244183,-0.854126179,0.950111401
13.90566754,0.240973697,-0.023110535,-0.947723145,0.978152125
13.91572954,0.199548806,0.122116468,-0.981286163,1.008788725
13.92579254,0.159494794,0.285894347,-0.927147378,0.983247897
13.93585554,0.148423383,0.445693488,-0.86296483,0.982537778
13.94591754,0.173737149,0.573909186,-0.769358509,0.975432656
13.95598054,0.25292716,0.639298307,-0.561775922,0.887843826
13.96604254,0.321622589,0.647112526,-0.208523405,0.752115497
13.97610554,0.326681015,0.630436559,0.169334781,0.729962334
13.98616854,0.328797999,0.57116655,0.471838728,0.810537561
13.99623054,0.337000181,0.492306614,0.717104867,0.932831343
14.00629354,0.336943171,0.507244204,0.937256044,1.117710282
14.01635654,0.150414653,0.798669432,1.076136187,1.348542369
14.02641854,-0.046459637,1.12075512,0.995454551,1.499726742
14.03648154,0.078967232,1.22378686,0.830332689,1.480993747
14.04654354,0.570663689,1.241379378,0.796683133,1.581576372
14.05660654,1.188797999,1.218240776,1.133999648,2.045313295
14.06666954,1.753519163,1.063341309,1.747580146,2.694357171
14.07673154,2.3478249,0.675741371,2.579441298,3.552805309
14.08679454,2.780245208,0.13337382,3.278714495,4.300874415
14.09685754,3.022261464,-0.395963211,3.714130332,4.804749249
14.10691954,2.912570622,-0.842072729,3.793115691,4.855911938
14.11698254,2.385935005,-1.116017121,3.414590338,4.312494318
14.12704454,1.881562369,-1.347043827,2.604137013,3.4837241
14.13710754,1.398362793,-1.40778792,1.684090494,2.602584507
14.14717054,1.18588667,-1.397623412,0.789470592,1.995730997
14.15723254,1.19026565,-1.253285771,0.069986494,1.729842667
14.16729554,1.27371682,-1.037805349,-0.436206965,1.699903231
14.17735854,1.38831406,-0.928259226,-0.764713481,1.836809143
14.18742054,1.483281613,-0.870910319,-1.017748815,1.998604958
14.19748354,1.576686498,-0.843197148,-1.207091013,2.157310932
14.20754554,1.647960548,-0.824045178,-1.367963119,2.29480882
14.21760854,1.67961942,-0.832377461,-1.451464282,2.370806233
14.22767154,1.656926669,-0.858300214,-1.518760471,2.405975605
14.23773354,1.604192385,-0.874929988,-1.591148416,2.422950469
14.24779654,1.502853121,-0.858116319,-1.653771511,2.393719142
14.25785954,1.320446013,-0.80492069,-1.833161164,2.39832334
14.26792154,1.267462345,-0.713985085,-2.097355909,2.5524767
14.27798454,1.17290936,-0.685344545,-2.332565421,2.699310089
14.28804654,0.917873109,-0.57662054,-2.569478227,2.788763283
14.29810954,0.68101322,-0.432944804,-2.832919266,2.945615687
14.30817254,0.549192129,-0.266660516,-2.89709655,2.960724278
14.31823454,0.421165588,-0.085461735,-2.903432009,2.935064154
14.32829754,0.399191167,0.118443539,-2.807927096,2.838632952
14.33836054,0.369856271,0.31040646,-2.676681079,2.719883716
14.34842254,0.311648993,0.485005488,-2.584562874,2.648078675
14.35848554,0.289712871,0.634833373,-2.477823706,2.57421003
14.36854854,0.30633592,0.743717007,-2.281791124,2.419406418
14.37861054,0.330293425,0.808505618,-1.890639879,2.082617159
14.38867354,0.43197709,0.817620258,-1.277780342,1.577285546
14.39873554,0.445400543,0.870769694,-0.843173175,1.291341359
14.40879854,0.476310971,0.88709512,-0.60578616,1.175068834
14.41886154,0.527608594,0.8969392,-0.468160245,1.141071764
14.42892354,0.575959513,0.933367646,-0.34514009,1.149793983
14.43898654,0.647749287,0.974741959,-0.224817256,1.191739831
14.44904954,0.697554701,1.027378302,-0.103800357,1.246139338
14.45911154,0.734893851,1.083386149,0.050052166,1.310076234
14.46917454,0.732924216,1.09622108,0.257724216,1.343614653
14.47923654,0.624020409,1.139642211,0.380699347,1.35392682
14.48929954,0.487770637,1.20962929,0.334332681,1.346440327
14.49936254,0.413623557,1.301708903,0.203003633,1.380847924
14.50942454,0.430365012,1.347604283,0.108897375,1.418841071
14.51948754,0.500764319,1.399655612,0.118758119,1.49127604
14.52955054,0.587812403,1.465728272,0.235017723,1.596595164
14.53961254,0.652174168,1.49423988,0.342267353,1.66590243
14.54967554,0.620199839,1.51680984,0.390865901,1.684676848
14.55973754,0.374466215,1.609616847,0.408411641,1.70231942
14.56980054,-0.006931874,1.771711313,0.370819892,1.810115029
14.57986354,-0.207054584,1.869197846,0.294133074,1.903493224
14.58992554,0.157071415,1.812434539,0.269850172,1.839132812
14.59998854,1.015121368,1.499885952,0.66685331,1.929979948
14.61005154,1.857514232,1.006432698,1.582710299,2.639741993
14.62011354,2.503848201,0.503907782,2.57647442,3.62786429
14.63017654,2.968771135,0.059941562,3.290241112,4.432029063
14.64023854,2.92071784,-0.513798932,3.57382113,4.644004685
14.65030154,2.331419659,-1.015465769,3.104294391,4.012895715
14.66036454,1.670216513,-1.318231672,2.238167971,3.088163501
14.67042654,0.898154544,-1.388771605,1.244513778,2.069826732
14.68048954,0.24769361,-1.295807308,0.17726302,1.331123917
14.69055254,-0.166964612,-1.018354879,-0.734005659,1.266368093
14.70061454,-0.2386582,-0.679911605,-1.273803651,1.463493515
14.71067754,-0.021417474,-0.444517905,-1.348065628,1.419625237
14.72073954,0.394701675,-0.352442678,-1.322776421,1.424690392
14.73080254,0.682453097,-0.194407934,-1.07931181,1.2916852
14.74086554,0.930327094,-0.257551138,-0.802682961,1.255444553
14.75092754,1.041701641,-0.51517332,-0.482960132,1.25848971
14.76099054,1.141061915,-0.927859861,-0.183024282,1.48204052
14.77105354,1.154991152,-1.229817386,0.073376709,1.688739029
14.78111554,0.972841029,-1.461310116,0.26048878,1.774739791
14.79117854,0.656473626,-1.637246695,0.212644522,1.776725093
14.80124154,0.211858364,-1.706070178,-0.006653547,1.719186926
14.81130354,-0.158816809,-1.68024975,-0.37493984,1.728884579
14.82136654,-0.36377312,-1.567404335,-0.757957023,1.778647262
14.83142854,-0.417981194,-1.379136563,-1.073310227,1.796864152
14.84149154,-0.482139768,-1.061411728,-1.262830181,1.718660432
14.85155454,-0.484833288,-0.781491482,-1.375838149,1.654908718
14.86161654,-0.383645759,-0.591035973,-1.518286847,1.673828707
14.87167954,-0.284776652,-0.388506842,-1.620728311,1.690797316
14.88174254,-0.048164685,-0.286576425,-1.644053439,1.669538138
14.89180454,0.05878966,-0.214915873,-1.655761904,1.670686248
14.90186754,0.100882012,-0.091304565,-1.55904194,1.564968202
14.91192954,0.148182478,0.041522833,-1.437918622,1.446130062
14.92199254,0.185680087,0.098070963,-1.452692197,1.46779073
14.93205554,0.194792388,0.124938626,-1.554797446,1.5719252
14.94211754,0.164264075,0.18855224,-1.585750852,1.605347438
14.95218054,0.205560328,0.266022584,-1.557619897,1.593487624
14.96224354,0.269902504,0.343489713,-1.479408125,1.542556627
14.97230554,0.349671682,0.400916095,-1.375670918,1.474948974
14.98236854,0.442543008,0.444744193,-1.293201789,1.437363064
14.99243054,0.556038341,0.431462242,-1.173040338,1.367977316
15.00249354,0.63271902,0.445442935,-1.046601316,1.301586371
15.01255654,0.690865486,0.441361286,-0.911229503,1.22573819
15.02261854,0.770711263,0.396786792,-0.73078969,1.133794152
15.03268167,0.797337436,0.390454842,-0.530805559,1.034387022
15.04274467,0.806667546,0.378783507,-0.390988693,0.973170916
15.05280667,0.811113476,0.3772223,-0.282784798,0.938173213
15.06286967,0.802268978,0.443654564,-0.237103425,0.946933429
15.07293167,0.753683001,0.518091373,-0.259835646,0.950774053
15.08299467,0.667787111,0.570675969,-0.26356383,0.917102273
15.09305767,0.568156111,0.622055745,-0.257312572,0.880888458
15.10311967,0.549202361,0.659290814,-0.254100112,0.894904731
15.11318267,0.579453224,0.70710759,-0.196987433,0.935185132
15.12324567,0.703335551,0.685115334,-0.0769248,0.984876309
15.13330767,0.889432837,0.627124404,0.18693373,1.104228241
15.14337067,1.137931024,0.459471282,0.603021596,1.367346305
15.15343267,1.290153343,0.292458723,0.962053501,1.635718402
15.16349567,1.143178023,0.236910467,1.133876857,1.627470211
15.17355867,0.679513409,0.424505517,1.089634484,1.352496476
15.18362067,0.276615693,0.713990055,0.666269174,1.014993917
15.19368367,0.270927814,0.881440862,0.087470253,0.926277992
15.20374667,0.610657475,1.012199222,-0.441112779,1.261756831
15.21380867,1.267403873,1.137112706,-0.61592757,1.810719375
15.22387167,2.184496087,1.074608602,-0.114548709,2.437196793
15.23393367,3.045076715,0.873968121,0.886740779,3.289775324
15.24399667,3.800064814,0.327852797,2.291264198,4.449479933
15.25405967,3.950192076,-0.45162695,3.208674207,5.109165735
15.26412167,3.459579108,-1.024629233,3.385872324,4.947997985
15.27418467,2.632285509,-1.493571543,3.009304619,4.267973435
15.28424767,1.591228523,-1.820801319,1.88306598,3.064843086
15.29430967,0.996356192,-1.961373646,0.784949525,2.335777814
15.30437267,0.582690827,-1.805901445,-0.172073032,1.905365518
15.31443567,0.506175917,-1.395408779,-0.933518504,1.753521177
15.32449767,0.436959502,-0.885948481,-1.42230948,1.731705106
15.33456067,0.387756059,-0.513922893,-1.665264214,1.785378504
15.34462267,0.343437966,-0.351462684,-1.786352448,1.852709023
15.35468567,0.345402338,-0.289660831,-1.735750059,1.793330544
15.36474867,0.39786151,-0.242862348,-1.504197396,1.574765286
15.37481067,0.511097519,-0.221746298,-1.145395287,1.273704227
15.38487367,0.68152222,-0.215416102,-0.736095454,1.026018104
15.39493667,0.81825585,-0.238031963,-0.508350497,0.99228125
15.40499867,0.887940043,-0.31841773,-0.371922677,1.013979214
15.41506167,0.929346223,-0.383985775,-0.272385525,1.041788535
15.42512367,0.847722016,-0.421210611,-0.315038624,0.997647398
15.43518667,0.654350502,-0.418964111,-0.51040287,0.929632505
15.44524967,0.399764194,-0.349693609,-0.857550309,1.008706877
15.45531167,0.207326187,-0.212622887,-1.284918623,1.318790547
15.46537467,0.07734346,-0.007099397,-1.622343897,1.624201998
15.47543767,-0.118059085,0.194902608,-1.98630325,1.999331282
15.48549967,-0.23902599,0.310370207,-2.225864845,2.260074644
15.49556267,-0.42668916,0.415860994,-2.431554689,2.503490006
15.50562467,-0.604089005,0.552071882,-2.593821355,2.719855899
15.51568767,-0.751700795,0.682959466,-2.63673524,2.825572587
15.52575067,-0.849421802,0.80988176,-2.640897288,2.889941929
15.53581267,-1.050434166,0.938323746,-2.721775975,3.064625238
15.54587567,-1.103045073,1.057362824,-2.602533706,3.017930792
15.55593867,-1.110390053,1.11422875,-2.456277301,2.91680818
15.56600067,-1.104837245,1.136319239,-2.144221927,2.666378522
15.57606367,-1.143800166,1.177609352,-1.723578495,2.380286839
15.58612667,-1.124105867,1.189028964,-1.22557874,2.044369615
15.59618867,-1.024655546,1.170165262,-0.674088655,1.695169974
15.60625167,-0.907270353,1.242830365,-0.173563487,1.548512542
15.61631367,-0.743024404,1.378016821,0.240067964,1.583871286
15.62637667,-0.613916713,1.479236217,0.567205646,1.699045544
15.63643967,-0.521838562,1.594413794,0.757310906,1.840649516
15.64650167,-0.422217502,1.715683292,0.887817836,1.977386479
15.65656467,-0.268496249,1.802615602,0.991687775,2.074839243
15.66662767,-0.127466085,1.905580392,1.017131349,2.163802304
15.67668967,0.011731853,2.026818023,1.03717385,2.276808848
15.68675267,0.213700529,2.147966484,1.117273688,2.430581911
15.69681467,0.463584214,2.256588455,1.214811677,2.604394207
15.70687767,0.701919063,2.308650601,1.294367723,2.738237713
15.71694067,0.926342508,2.311188,1.41184998,2.862345329
15.72700267,1.013565424,2.216298508,1.49252343,2.85778238
15.73706567,0.825812207,2.10823056,1.497464912,2.714590772
15.74712867,0.465100105,2.020655935,1.402966306,2.503534096
15.75719067,0.148795266,1.912204702,1.228758456,2.277831029
15.76725367,0.113963695,1.755422139,1.088855635,2.068840546
15.77731567,0.214142579,1.63647574,1.115525955,1.992061256
15.78737867,0.402480226,1.519014241,1.267738919,2.01904843
15.79744167,0.743467915,1.321893784,1.587997937,2.195879132
15.80750367,1.186060625,0.894900568,1.990333736,2.483750232
15.81756667,1.683676511,0.409003379,2.391099558,2.95286428
15.82762967,2.081533928,-0.021456943,2.782622686,3.475087467
15.83769167,1.920629371,-0.379869627,2.634837234,3.282603443
15.84775467,1.514613918,-0.65891513,2.025429309,2.613539431
15.85781667,1.067076218,-0.855356726,1.054063532,1.726654776
15.86787967,0.781821849,-0.939410158,0.136776899,1.229814933
15.87794267,0.562006594,-0.954403296,-0.634266778,1.276335148
15.88800467,0.470235714,-0.864482768,-1.193407944,1.54682727
15.89806767,0.432739859,-0.763379146,-1.416669255,1.666422301
15.90813067,0.468598201,-0.689795153,-1.440860941,1.664776825
15.91819267,0.645309244,-0.709530676,-1.248086427,1.574032252
15.92825567,0.801296878,-0.81394002,-0.920585048,1.466987346
15.93831867,0.876330396,-1.072387829,-0.60082889,1.509624448
15.94838067,0.993305115,-1.407878259,-0.318407789,1.752187137
15.95844367,1.054942954,-1.630815343,-0.047191708,1.942856241
15.96850567,0.981961516,-1.786761754,0.143854369,2.043883574
15.97856867,0.783870714,-1.900815496,0.153325104,2.061810232
15.98863167,0.518213288,-1.987492574,0.038850655,2.054307941
15.99869367,0.223669447,-2.040667738,-0.173060626,2.06017058
16.00875667,-0.023774486,-2.023628074,-0.461251175,2.075665786
16.01881967,-0.20759282,-1.946580191,-0.836110908,2.128696941
16.02888167,-0.288065418,-1.789171976,-1.210577123,2.179361148
16.03894429,-0.376254002,-1.561102206,-1.484387029,2.186781202
16.04900629,-0.434444907,-1.376037246,-1.6932753,2.224725179
16.05906929,-0.517289135,-1.215522113,-1.923045148,2.333063372
16.06913229,-0.573450472,-1.029985283,-2.029347528,2.346905733
16.07919429,-0.570324551,-0.873343346,-2.088199754,2.334218693
16.08925729,-0.585506846,-0.766847715,-2.117893084,2.327304192
16.09932029,-0.578980477,-0.639986524,-2.082393469,2.254143674
16.10938229,-0.555310071,-0.533264021,-2.003052599,2.145916938
16.11944529,-0.498290362,-0.434589333,-1.878468314,1.991432746
16.12950729,-0.435908465,-0.345679788,-1.673887103,1.763918575
16.13957029,-0.315690004,-0.299563675,-1.409930924,1.47556897
16.14963329,-0.16047888,-0.280752305,-1.114544207,1.160510284
16.15969529,0.018183379,-0.244615051,-0.851483238,0.886109961
16.16975829,0.178557009,-0.213033947,-0.57003336,0.634195631
16.17982129,0.235291958,-0.178825981,-0.360053414,0.465810581
16.18988329,0.205072963,-0.117438403,-0.229410828,0.32935699
16.19994629,0.113652623,-0.062619879,-0.204992271,0.242610798
16.21000829,0.042117202,0.031789265,-0.23495048,0.240803124
16.22007129,-0.053238021,0.150514055,-0.324457904,0.361609871
16.23013429,-0.100480308,0.281227684,-0.366114637,0.472467174
16.24019629,-0.087178477,0.43000804,-0.376194068,0.577952401
16.25025929,-0.015532251,0.558209997,-0.255887021,0.614262012
16.26032229,0.122469055,0.615412138,-0.017027677,0.627710691
16.27038429,0.232209598,0.639019395,0.313658681,0.748764884
16.28044729,0.334799581,0.64529258,0.563885597,0.920032738
16.29051029,0.452664831,0.561798141,0.702839999,1.007227216
16.30057229,0.583396294,0.428498581,0.785235454,1.067968627
16.31063529,0.691529145,0.340197731,0.901304439,1.185873832
16.32069729,0.539947388,0.48300691,1.034255505,1.262744355
16.33076029,0.277759408,0.763275651,0.901616095,1.21352857
16.34082329,0.139839963,0.944653064,0.522967367,1.088769716
16.35088529,0.252267302,1.027275099,0.08488403,1.061196597
16.36094829,0.658828299,1.108368671,-0.210389251,1.306445359
16.37101129,1.166898715,1.16983314,-0.205081733,1.664998709
16.38107329,1.759043028,1.13645197,0.220968034,2.105844801
16.39113629,2.340493953,0.896196311,0.868929575,2.652568261
16.40119829,2.750686071,0.391404722,1.649518247,3.231157991
16.41126129,3.074932306,-0.242095486,2.429750238,3.9265131
16.42132429,2.88539978,-0.862006472,2.696672709,4.042354605
16.43138629,2.335992474,-1.254757223,2.49352465,3.639909574
16.44144929,1.757542048,-1.585365228,1.861770421,3.011399351
16.45151229,1.165488951,-1.664770709,0.979271797,2.255836709
16.46157429,0.865023343,-1.494467337,0.107406335,1.730096565
16.47163729,0.793006403,-1.127220971,-0.67941196,1.53658286
16.48169929,0.765282415,-0.789519124,-1.307101205,1.708072359
16.49176229,0.903264718,-0.569750062,-1.651242006,1.966494964
16.50182529,1.001385089,-0.368151515,-1.773394434,2.069597897
16.51188729,1.094543222,-0.232407819,-1.789751435,2.110745948
16.52195029,1.211390179,-0.141403508,-1.661747113,2.061277416
16.53201329,1.299512396,-0.171859608,-1.451877095,1.956071392
16.54207529,1.348120592,-0.346327659,-1.197040819,1.835831883
16.55213829,1.39176421,-0.473937879,-0.949170915,1.75001433
16.56220029,1.419451068,-0.54099404,-0.673659469,1.6617259
16.57226329,1.384998397,-0.613812633,-0.418433769,1.571646692
16.58232629,1.279891772,-0.678261813,-0.30620582,1.480514788
16.59238829,1.081130001,-0.753146811,-0.329605792,1.358201818
16.60245129,0.832764254,-0.801322021,-0.50040647,1.259372828
16.61251429,0.583722861,-0.74561589,-0.797379536,1.237937623
16.62257629,0.350161386,-0.650099283,-1.205928002,1.414038338
16.63263929,0.159169396,-0.451867563,-1.546943466,1.619429924
16.64270229,0.084094363,-0.213958976,-1.777602675,1.792406643
16.65276429,-0.129241885,0.012990174,-2.123919225,2.127887469
16.66282729,-0.196971061,0.218780883,-2.168106633,2.188001153
16.67288929,-0.235349845,0.364058756,-2.237544073,2.279151554
16.68295229,-0.30420958,0.530528109,-2.210035847,2.293090053
16.69301529,-0.327170719,0.638649266,-2.095743247,2.215186972
16.70307729,-0.340067338,0.690530733,-2.005963343,2.148573346
16.71314029,-0.317484222,0.708057177,-1.849702352,2.005876364
16.72320329,-0.287312297,0.720209738,-1.615128433,1.791616665
16.73326529,-0.219193111,0.775894527,-1.335035693,1.559608361
16.74332829,-0.164334242,0.866893282,-1.099212808,1.409531306
16.75339029,-0.108316746,0.913786198,-0.901779233,1.288387953
16.76345329,0.037693491,0.900137627,-0.608430271,1.087131979
16.77351629,0.15979037,0.927314608,-0.274388781,0.980170673
16.78357829,0.227246189,0.943965139,0.002209078,0.970935577
16.79364129,0.309373841,0.977603879,0.213933249,1.047467876
16.80370429,0.345441222,1.006061693,0.317963401,1.11022092
16.81376629,0.361948496,1.04016587,0.351453913,1.156058651
16.82382929,0.292222204,1.155155459,0.338150328,1.238597431
16.83389129,0.214127961,1.297949728,0.273584204,1.343641543
16.84395429,0.190228344,1.401412116,0.257748774,1.43755945
16.85401729,0.188720932,1.527342722,0.353552479,1.579047414
16.86407929,0.220641759,1.640386065,0.504568518,1.730357945
16.87414229,0.251654221,1.694979764,0.683666394,1.844908124
16.88420529,0.276774737,1.71341048,0.859054797,1.936583298
16.89426729,0.30574389,1.712377277,0.966161755,1.989769786
16.90433029,0.243644413,1.741161365,0.968894743,2.007426841
16.91439329,0.048149774,1.845687654,0.949050463,2.075952335
16.92445529,-0.241166948,2.042628601,0.82231908,2.21510762
16.93451829,-0.545784079,2.254726994,0.587235868,2.393014844
16.94458029,-0.517802229,2.402384684,0.357154364,2.483370806
16.95464329,-0.098421503,2.408004151,0.312901466,2.430242397
16.96470629,0.614045059,2.193822688,0.797169621,2.413584207
16.97476829,1.284625385,1.866026609,1.78376564,2.883424621
16.98483129,1.881926065,1.46421589,2.884016329,3.742074835
16.99489429,2.481217723,0.882330809,3.691565343,4.534600723
17.00495629,2.772716918,0.18928051,4.199052206,5.035456846
17.01501929,2.356184664,-0.320293809,3.878344706,4.549258396
17.02508129,1.790683773,-0.849823213,2.947591935,3.552048154
17.03514483,1.146229684,-1.080661055,1.766937354,2.367221666
17.04520783,0.530568455,-1.089395918,0.559711854,1.334752303
17.05526983,0.10921751,-0.911879128,-0.619636459,1.10788147
17.06533283,-0.122821934,-0.680192856,-1.443112119,1.600100039
17.07539583,-0.203863174,-0.446648631,-1.821186651,1.886206778
17.08545783,-0.004052998,-0.23834859,-1.90079123,1.915681021
17.09552083,0.298440133,-0.09268977,-1.641764839,1.671241961
17.10558283,0.566421827,-0.010808578,-1.290779287,1.409631753
17.11564583,0.64620036,-0.020547116,-0.968625771,1.16457416
17.12570883,0.514962821,-0.24696797,-0.694007195,0.89879134
17.13577083,0.651705514,-0.647097908,-0.361999367,0.987167321
17.14583383,0.791790475,-0.953790216,-0.124601242,1.245862513
17.15589683,0.819520895,-1.124880331,0.125992879,1.397442114
17.16595883,0.820963696,-1.316139539,0.30869498,1.581612236
17.17602183,0.739690322,-1.494136969,0.297564805,1.693555983
17.18608483,0.617458372,-1.603522294,0.178844107,1.727577438
17.19614683,0.4433891,-1.670624356,-0.075586372,1.730113561
17.20620983,0.247719922,-1.700230563,-0.479049515,1.783714542
17.21627183,0.054852438,-1.606446779,-0.987998182,1.886748645
17.22633483,-0.063965031,-1.39225216,-1.524408882,2.065497529
17.23639783,-0.212202765,-1.18603519,-1.977250006,2.315432372
17.24645983,-0.366616036,-1.020821234,-2.320738258,2.561700484
17.25652283,-0.454791171,-0.8382697,-2.550315732,2.722800292
17.26658583,-0.497572909,-0.637594428,-2.624408725,2.746202216
17.27664783,-0.632386021,-0.439552158,-2.760562896,2.865977264
17.28671083,-0.532936869,-0.285559009,-2.763245013,2.828619568
17.29677283,-0.442823675,-0.155393557,-2.707956666,2.748321173
17.30683583,-0.334558091,-0.04562407,-2.663407314,2.684725162
17.31689883,-0.174072487,0.082021233,-2.490915037,2.498336734
17.32696083,-0.017246655,0.214513,-2.280188402,2.290321467
17.33702383,0.129630432,0.259418739,-2.062688352,2.082975124
17.34708683,0.261162671,0.198850356,-1.723027103,1.754015337
17.35714883,0.320794038,0.183317812,-1.229015148,1.283352044
17.36721183,0.332552204,0.208043641,-0.841516074,0.928451629
17.37727383,0.292096781,0.213813965,-0.575136809,0.679572874
17.38733683,0.271844365,0.237218615,-0.354154158,0.505566215
17.39739983,0.225122188,0.259452945,-0.139327455,0.37068581
17.40746183,0.090137168,0.399599302,-0.082125313,0.417790472
17.41752483,-0.098224744,0.569141659,-0.165145835,0.600702485
17.42758783,-0.301667211,0.778161785,-0.297813311,0.886132968
17.43764983,-0.431517791,0.993753011,-0.374473817,1.146291102
17.44771283,-0.515515383,1.217277155,-0.27389586,1.350014342
17.45777583,-0.555263293,1.453191257,0.037209926,1.556106273
17.46783783,-0.601913549,1.661776057,0.325015143,1.797062722
17.47790083,-0.552809216,1.806202284,0.500863722,1.954182486
17.48796283,-0.330969363,1.867759724,0.703304853,2.023043455
17.49802583,0.016681229,1.880355211,1.069125375,2.163109579
17.50808883,0.269625054,1.966089426,1.534918082,2.508820205
17.51815083,0.39307381,2.097499166,1.94576275,2.88790624
17.52821383,0.402237274,2.129712938,2.007863104,2.954485787
17.53827683,0.372957634,2.060383964,1.734617454,2.719039755
17.54833883,0.4662216,2.00135983,1.464626949,2.523476937
17.55840183,0.742539085,1.947624211,1.472594365,2.552085133
17.56846383,1.132232912,1.807430491,1.717540661,2.738375845
17.57852683,1.574775628,1.446006783,2.083852934,2.985514519
17.58858983,2.007988819,0.947331381,2.559509894,3.388295551
17.59865183,2.161367133,0.412281913,2.921916811,3.657742762
17.60871483,2.069960534,-0.110805906,2.867435964,3.538248659
17.61877783,1.529175532,-0.583321157,2.587653712,3.061795733
17.62883983,0.927567793,-0.975635706,1.929578826,2.352768898
17.63890283,0.477456733,-1.244581898,1.100989777,1.728909345
17.64896483,0.161086113,-1.361983171,0.236571329,1.391730178
17.65902783,0.084475309,-1.244930685,-0.514469023,1.349691396
17.66909083,0.196420838,-0.966820151,-0.987304702,1.395740995
17.67915283,0.221279106,-0.694071222,-1.363979995,1.546331378
17.68921583,0.223417432,-0.425534627,-1.532328935,1.605934941
17.69927883,0.176531826,-0.216362767,-1.69174333,1.714634604
17.70934083,0.13118813,-0.171491818,-1.902647721,1.914859817
17.71940383,0.17074893,-0.26895087,-2.009779236,2.03487158
17.72946683,0.281358077,-0.450420377,-2.053794737,2.121347144
17.73952883,0.59944807,-0.646571074,-1.713666295,1.927185594
17.74959183,0.962986717,-0.726069818,-1.232256845,1.724232504
17.75965383,1.213417701,-0.859218519,-0.829809363,1.702710357
17.76971683,1.367709642,-1.046050508,-0.489608417,1.790130646
17.77977983,1.379526572,-1.240816584,-0.316263031,1.88221722
17.78984183,1.176166844,-1.404863142,-0.376163077,1.870429778
17.79990483,0.82432409,-1.533214788,-0.657062148,1.860641948
17.80996783,0.467640427,-1.514664497,-1.058370591,1.906054673
17.82002983,0.133225885,-1.329011891,-1.439872761,1.963989642
17.83009283,-0.289126103,-0.95092625,-1.82894766,2.081562918
17.84015483,-0.708305392,-0.593722184,-2.207834955,2.39347817
17.85021783,-0.854944205,-0.317890311,-2.383060221,2.551658257
17.86028083,-0.795877386,-0.078097751,-2.341709297,2.474494393
17.87034283,-0.538025993,0.051199974,-2.038360426,2.108792696
17.88040583,-0.363664069,0.24000306,-1.838010845,1.888951267
17.89046883,0.089982802,0.551471958,-1.592320783,1.68751406
17.90053083,0.395741894,0.913570143,-1.844284322,2.09585465
17.91059383,0.548692192,1.195646843,-2.215899435,2.576983663
17.92065583,0.613073252,1.231141196,-2.400182038,2.766304624
17.93071883,-0.048428979,1.378116809,-2.351601616,2.72609271
17.94078183,-0.209228286,1.030167716,-2.056624205,2.309702387
17.95084383,-0.126960593,0.527959719,-1.77600697,1.857164832
17.96090683,-0.133534618,0.369720615,-1.118501018,1.185567103
17.97096983,-0.257897294,0.466663358,-0.679120184,0.863417586
17.98103183,-0.164688583,0.65087287,-0.451183439,0.808903157
17.99109483,0.075803596,0.791223587,-0.346317719,0.867016097
18.00115783,0.207135276,1.085114586,-0.294547057,1.143300773
18.01121983,0.369999527,1.379590892,-0.231346257,1.446959491
18.02128283,0.393144561,1.64147891,-0.047344905,1.68856661
18.03134483,0.40851923,1.694427786,0.271905468,1.764059542
18.04140771,0.460209201,1.660398161,0.620923432,1.831464023
18.05147071,0.449861968,1.561779606,0.960950131,1.888109235
18.06153271,0.29027128,1.519970845,1.322435528,2.035535436
18.07159571,0.022247778,1.646514532,1.629780385,2.316827394
18.08165871,-0.39201868,1.789847329,1.765395443,2.544376776
18.09172071,-0.490281139,1.943909183,1.71547367,2.638561808
18.10178371,-0.183618067,1.97493217,1.583848752,2.538237487
18.11184571,0.205430812,2.115961164,1.543892974,2.627374922
18.12190871,0.745858257,2.275837489,1.656222664,2.911840368
18.13197171,1.16264048,2.172903689,1.956105305,3.146361596
18.14203371,1.302430741,1.730829628,2.393208649,3.22793195
18.15209671,1.402668682,1.077151263,2.820126143,3.328790431
18.16215971,1.300978001,0.37440482,2.761717136,3.07567948
18.17222171,0.999364584,-0.209480009,2.462799286,2.666081726
18.18228471,0.597504748,-0.561771244,1.843737023,2.017911064
18.19234671,-0.012960061,-0.66509973,1.03744633,1.232404358
18.20240971,-0.551102414,-0.570414013,0.092588906,0.798535361
18.21247271,-1.070460002,-0.435916944,-0.865498429,1.443951429
18.22253471,-1.491641085,-0.371203469,-1.510394275,2.155011835
18.23259771,-1.761740348,-0.230007829,-1.773016704,2.510024081
18.24266071,-1.91102181,-0.026622958,-1.664892915,2.53467583
18.25272271,-1.941117429,0.152961992,-1.250659202,2.314191583
18.26278571,-1.913559794,0.184693077,-0.741630428,2.060543208
18.27284771,-1.852614266,0.051117529,-0.336892008,1.88369022
18.28291071,-1.793971955,-0.250731531,0.003213045,1.811411604
18.29297371,-1.610126432,-0.616463175,0.364646401,1.762243165
18.30303571,-1.417317419,-0.891712666,0.775027385,1.845157878
18.31309871,-1.171677936,-1.073407876,1.123176452,1.94590827
18.32316171,-0.931481919,-1.212364617,1.466065364,2.118214857
18.33322371,-0.781074575,-1.323297408,1.646657789,2.252260064
18.34328671,-0.711000081,-1.38503231,1.642654785,2.263216817
18.35334971,-0.671226443,-1.414181265,1.483598825,2.15673806
18.36341171,-0.676948528,-1.398149369,1.184519007,1.953501023
18.37347471,-0.728775032,-1.350341365,0.825160242,1.742246904
18.38353671,-0.810683413,-1.346699719,0.430909973,1.629874576
18.39359971,-0.98484127,-1.356583267,0.042403423,1.676910415
18.40366271,-1.211283759,-1.337911354,-0.359532427,1.840238762
18.41372471,-1.346056525,-1.297142227,-0.709340934,1.999402582
18.42378771,-1.445837506,-1.284480667,-0.999518366,2.177010253
18.43385071,-1.509564555,-1.240517791,-1.232211821,2.309981712
18.44391271,-1.551410154,-1.160777557,-1.385826947,2.382182682
18.45397571,-1.550677498,-1.070997654,-1.499363503,2.408262359
18.46403771,-1.525453779,-1.012291024,-1.543968403,2.394907259
18.47410071,-1.443567909,-0.949313003,-1.503875214,2.290572886
18.48416371,-1.213197845,-0.90357959,-1.385502427,2.051322028
18.49422571,-1.122803984,-0.724256596,-1.089213485,1.723839441
18.50428871,-0.84285684,-0.743891546,-0.796952105,1.378011227
18.51435171,-0.651794976,-0.733205175,-0.492018054,1.097500927
18.52441371,-0.486474894,-0.739716049,-0.225269246,0.91355563
18.53447671,-0.444431074,-0.739721897,-0.060139782,0.865057372
18.54453871,-0.427640502,-0.768059843,0.026127114,0.879474245
18.55460171,-0.405176669,-0.721914786,0.089952981,0.832718818
18.56466471,-0.313023673,-0.562723171,0.222466675,0.681272785
18.57472671,-0.154768197,-0.347881265,0.320571259,0.497735373
18.58478971,0.038073852,-0.141491509,0.416477875,0.441501173
18.59485271,0.268177868,0.004004758,0.517305508,0.582700948
18.60491471,0.445199983,0.16619658,0.653601181,0.808095806
18.61497771,0.520572055,0.399988142,0.801921068,1.036370194
18.62504071,0.655481938,0.556538571,0.86622173,1.220545712
18.63510271,0.708920519,0.654459552,0.804005016,1.255909899
18.64516571,0.767181298,0.774176615,0.574385442,1.23200455
18.65522771,0.94104007,0.81514864,0.383941044,1.302856263
18.66529071,1.138501419,0.84796029,0.175861443,1.43043678
18.67535371,1.448577511,0.853382998,0.298251852,1.707510912
18.68541571,1.742060375,0.71516476,0.658898758,1.995089611
18.69547871,1.924820655,0.454766028,1.163395355,2.294610086
18.70554171,2.140111919,0.106561997,1.869710355,2.843809293
18.71560371,2.200785552,-0.214565917,2.300528526,3.190913205
18.72566671,2.065058813,-0.322792616,2.710517746,3.422801401
18.73572871,1.729542655,-0.305770787,2.796912696,3.302655629
18.74579171,1.369705589,-0.336211392,2.409023613,2.791509675
18.75585471,1.021026179,-0.474569963,1.676778551,2.019727065
18.76591671,0.795036264,-0.554988474,0.914568847,1.332865726
18.77597971,0.652557453,-0.467014775,0.242613841,0.838328996
18.78604271,0.662652086,-0.324633905,-0.342330503,0.813440307
18.79610471,0.742029793,-0.234757522,-0.744317808,1.076906824
18.80616771,0.874741123,-0.180424025,-0.980175192,1.326072497
18.81622971,1.006678281,-0.146820077,-1.139921123,1.527866966
18.82629271,1.068948205,-0.101597126,-1.215598712,1.621928626
18.83635571,1.018728223,-0.112527326,-1.298099416,1.653944282
18.84641771,0.885030468,-0.205611491,-1.400929136,1.669777667
18.85648071,0.661415108,-0.325083556,-1.527911364,1.696367413
18.86654371,0.409474665,-0.437947097,-1.665190539,1.769838041
18.87660571,0.161076758,-0.5194222,-1.769141169,1.850839166
18.88666871,-0.086883777,-0.563234802,-1.875644694,1.960312539
18.89673171,-0.299195885,-0.548879303,-1.910935564,2.010587326
18.90679371,-0.455967338,-0.503942866,-1.903565733,2.021243955
18.91685671,-0.516933332,-0.43713141,-1.846003988,1.966223452
18.92691871,-0.535259383,-0.360533178,-1.706981174,1.82490315
18.93698171,-0.589435591,-0.288675867,-1.598010709,1.727543428
18.94704471,-0.602634803,-0.237477355,-1.531024421,1.662407886
18.95710671,-0.609209704,-0.168516755,-1.454804211,1.586187143
18.96716971,-0.597956153,-0.041320519,-1.42346372,1.544508954
18.97723271,-0.563744094,0.136900568,-1.441667857,1.55401267
18.98729471,-0.519806947,0.333457938,-1.441867247,1.568558132
18.99735771,-0.54374954,0.507566678,-1.382705703,1.570083615
19.00741971,-0.551484237,0.604364409,-1.281852928,1.52070317
19.01748271,-0.533167834,0.650463857,-1.083669155,1.371754353
19.02754571,-0.546455632,0.681731551,-0.862239776,1.227529672
19.03760729,-0.579945852,0.698878803,-0.67652402,1.132454645
19.04767029,-0.581329303,0.693563099,-0.481963182,1.025310704
19.05773329,-0.54452839,0.724512119,-0.276706617,0.947626261
19.06779529,-0.491696457,0.857672516,-0.120380137,0.995921145
19.07785829,-0.370064431,1.05542915,-0.003849807,1.118433366
19.08792029,-0.219935708,1.289018691,0.063552217,1.309190507
19.09798329,0.004394475,1.550423144,0.100509544,1.553683818
19.10804629,0.31153468,1.853494272,0.242381707,1.89505772
19.11810829,0.551177843,2.181554352,0.450063112,2.294674969
19.12817129,0.745162438,2.399019611,0.750542169,2.621807717
19.13823429,0.889097791,2.534142918,1.160895671,2.925756991
19.14829629,0.836130788,2.585292314,1.495969194,3.101737396
19.15835929,0.587407776,2.549260602,1.731168766,3.136992637
19.16842229,0.115822817,2.563758481,1.867185527,3.173744518
19.17848429,-0.336119883,2.602648897,1.883568841,3.230261511
19.18854729,-0.683231362,2.517372519,1.760707145,3.147071519
19.19860929,-0.540353478,2.682579165,1.711890496,3.2278138
19.20867229,-0.356377269,2.634231462,1.699976209,3.15532871
19.21873529,0.216293185,2.196749804,1.883779925,2.901916479
19.22879729,0.46457444,1.871212505,2.539281451,3.188293577
19.23886029,0.756074805,1.318803238,3.229714243,3.569586136
19.24892329,0.950075772,0.725387447,4.030815532,4.204319776
19.25898529,0.942324411,-0.092184278,4.420641214,4.520900571
19.26904829,0.402994781,-0.818387997,4.354827293,4.449346521
19.27911029,-0.228409493,-1.395002398,3.911977891,4.159540071
19.28917329,-1.016038504,-1.780107622,3.119174386,3.732340584
19.29923629,-1.804682885,-1.979263787,2.00116044,3.343502439
19.30929829,-2.505396836,-1.881109502,0.946245553,3.272761359
19.31936129,-2.970076818,-1.645362046,0.052574655,3.395782187
19.32942429,-3.184008313,-1.520015869,-0.722151014,3.601369082
19.33948629,-3.453294228,-1.087596729,-0.991500664,3.753822217
19.34954929,-3.489749864,-0.851813605,-0.902204325,3.70377013
19.35961229,-3.223901526,-0.719464803,-0.570218132,3.352061958
19.36967429,-2.927807297,-0.674789736,-0.111996399,3.006649289
19.37973729,-2.528926909,-0.898888369,0.266905514,2.697167063
19.38979929,-2.169325778,-1.162824082,0.65639615,2.547349619
19.39986229,-1.836754278,-1.513504409,0.981275053,2.574347025
19.40992529,-1.495895227,-1.774875534,1.328135979,2.674290722
19.41998729,-1.309088381,-1.998773607,1.644893099,2.900772592
19.43005029,-1.178258978,-2.202864822,1.86497528,3.11753756
