"Time (s)","Linear Acceleration x (m/s^2)","Linear Acceleration y (m/s^2)","Linear Acceleration z (m/s^2)","Absolute acceleration (m/s^2)"
2.088483333E-2,-1.458726816E-1,-1.077104193E0,1.374347693E0,1.752216843E0
3.085183332E-2,1.204339314E-1,-1.178589053E0,1.122811001E0,1.632262550E0
4.081983332E-2,2.384654611E-1,-1.108491755E0,1.068702621E0,1.558122280E0
5.078683334E-2,1.620507579E-1,-8.641345659E-1,1.331933160E0,1.595943276E0
6.075383333E-2,1.386765864E-1,-8.509591810E-1,1.374825411E0,1.622808563E0
7.072183333E-2,2.721370178E-1,-8.907274103E-1,1.233554342E0,1.545674672E0
8.068883332E-2,5.083401181E-1,-5.367241108E-1,9.633732176E-1,1.214318905E0
9.065683332E-2,4.768951079E-1,-6.057823589E-1,5.541587538E-1,9.494699230E-1
1.006238333E-1,4.471582156E-1,-4.988034555E-1,2.699027967E-1,7.222207950E-1
1.105918333E-1,4.889841532E-1,-3.372175513E-1,-6.970056474E-2,5.980629964E-1
1.205588333E-1,5.875171921E-1,-2.819650179E-1,-5.016478336E-1,8.223936231E-1
1.305268333E-1,6.950524581E-1,-1.354004645E-1,-8.504605597E-1,1.106668139E0
1.404938333E-1,6.553906482E-1,-1.110700540E-1,-1.214170822E0,1.384226948E0
1.504618333E-1,4.868874878E-1,-1.468230003E-1,-1.279488314E0,1.376846674E0
1.604288333E-1,5.130506350E-1,7.598895282E-3,-1.095399254E0,1.209619040E0
1.703968333E-1,4.235025738E-1,2.054828525E-2,-9.752436501E-1,1.063426932E0
1.803638333E-1,3.210238338E-1,-1.433901000E-1,-1.003506167E0,1.063316345E0
1.903318333E-1,1.964841338E-1,-1.577621175E-1,-7.184491414E-1,7.613567293E-1
2.002988333E-1,1.064960696E-2,-3.228557664E-1,-2.210680211E-1,3.914336853E-1
2.102668333E-1,1.077155064E-1,-1.122476833E-1,7.253237128E-2,1.716482380E-1
2.202338333E-1,1.583216961E-1,-4.590268940E-2,8.204228282E-2,1.841297165E-1
2.302018333E-1,1.403258666E-3,-5.850833617E-1,2.025943279E-2,5.854356958E-1
2.401688333E-1,5.287052393E-2,-3.509352654E-1,-1.987936378E-2,3.554518841E-1
2.501358333E-1,2.202961886E-1,-3.572648764E-2,3.798877537E-2,2.263844952E-1
2.601038333E-1,4.999654435E-2,-4.827838388E-1,2.893401110E-1,5.650642347E-1
2.700708333E-1,8.953483187E-2,-3.967458612E-1,3.042136735E-1,5.079071998E-1
2.800388333E-1,2.187932349E-1,-2.792628734E-1,-5.895162821E-3,3.548140147E-1
2.900058333E-1,3.805053293E-1,-3.494222984E-2,-2.382775462E-1,4.503126182E-1
2.999738333E-1,3.580160243E-1,5.891683728E-2,-3.432929546E-1,4.994964665E-1
3.099408333E-1,1.383961393E-1,-3.671029629E-1,7.504082680E-2,3.994361055E-1
3.199088333E-1,-5.735760413E-2,-5.709931800E-1,8.502015281E-1,1.025751307E0
3.298758333E-1,-2.254277781E-1,-9.555078354E-1,1.490170510E0,1.784494622E0
3.398438333E-1,-2.571993553E-1,-1.400093861E0,1.814163560E0,2.305993008E0
3.498108333E-1,-2.007808140E-1,-1.539210816E0,1.657496772E0,2.270854117E0
3.597788333E-1,-1.681168056E-1,-1.644726453E0,1.169030902E0,2.024851011E0
3.697458333E-1,-1.266414817E-1,-1.656876821E0,4.344083619E-1,1.717553344E0
3.797138333E-1,-2.484503127E-1,-1.371345294E0,-2.743759167E-1,1.420421634E0
3.896808333E-1,-6.130722289E-1,-1.230820330E0,-3.697761637E-1,1.423906828E0
3.996488333E-1,-8.808515362E-1,-2.987919889E-1,-1.536614944E0,1.796207552E0
4.096158333E-1,-1.332114132E0,-7.635732740E-3,-1.751243427E0,2.200327227E0
4.195838333E-1,-1.448498428E0,-8.718885586E-2,-1.579380895E0,2.144806192E0
4.295508333E-1,-1.044853948E0,-2.507490724E-1,-1.523496716E0,1.864306068E0
4.395190000E-1,-1.126130465E0,-7.055865826E-1,-9.337178940E-1,1.624146347E0
4.494860000E-1,-1.320775942E0,-8.572070771E-1,-2.345674878E-1,1.591940630E0
4.594530000E-1,-1.453503206E0,-7.584785950E-1,2.278309107E-1,1.655254745E0
4.694210000E-1,-1.533442830E0,-8.510455737E-1,5.469444591E-1,1.837082938E0
4.793880000E-1,-1.594212357E0,-7.898443754E-1,5.026237339E-1,1.848782788E0
4.893560000E-1,-1.603909526E0,-3.073150367E-1,-7.514256835E-3,1.633102802E0
4.993230000E-1,-1.569366369E0,-1.443296014E-1,-1.675888020E-1,1.584874708E0
5.092910000E-1,-1.499420221E0,-1.152271320E-1,-2.811873382E-1,1.529903464E0
5.192580000E-1,-1.421844918E0,-1.947245604E-1,-2.423530555E-1,1.455436577E0
5.292260000E-1,-1.437173540E0,-3.976360998E-1,-2.481967628E-1,1.511682469E0
5.391930000E-1,-1.511436103E0,-4.268300781E-1,-2.752301949E-1,1.594482571E0
5.491610000E-1,-1.629004899E0,-4.074538672E-1,-2.401129872E-1,1.696269395E0
5.591280000E-1,-1.720359603E0,-3.890194966E-1,-1.984205854E-1,1.774920861E0
5.690960000E-1,-1.784124952E0,-3.545239940E-1,-1.552108312E-1,1.825617569E0
5.790630000E-1,-1.873618049E0,-3.436459802E-1,-3.757906097E-1,1.941585882E0
5.890310000E-1,-1.946953974E0,-3.234014578E-1,-7.196302789E-1,2.100734638E0
5.989980000E-1,-1.885173170E0,-2.863606623E-1,-1.069353417E0,2.186183213E0
6.089660000E-1,-1.846028985E0,-2.616449203E-1,-1.481284497E0,2.381277984E0
6.189330000E-1,-1.896045629E0,-2.770264596E-1,-1.743666605E0,2.590773228E0
6.289010000E-1,-2.099470262E0,-1.466231717E-1,-1.792995470E0,2.764797731E0
6.388680000E-1,-2.035665445E0,-2.568066417E-1,-1.749287533E0,2.696273415E0
6.488360000E-1,-1.933042132E0,-4.325246814E-1,-1.562537405E0,2.522945229E0
6.588030000E-1,-2.026783817E0,-5.345349133E-2,-1.239535459E0,2.376374985E0
6.687710000E-1,-2.173257592E0,2.412020311E-2,-9.818410635E-1,2.384877821E0
6.787380000E-1,-2.259367490E0,-4.870775954E-1,-1.051818786E0,2.539352043E0
6.887050000E-1,-2.128374657E0,-6.418576330E-1,-1.264825251E0,2.557683095E0
6.986730000E-1,-1.956234821E0,-6.438538724E-1,-1.568669965E0,2.588846837E0
7.086400000E-1,-1.778145735E0,-4.532938452E-1,-1.763646541E0,2.545137852E0
7.186080000E-1,-1.517771122E0,-2.600533082E-1,-1.749011545E0,2.330300042E0
7.285750000E-1,-1.522460736E0,-2.203514448E-1,-2.009858174E0,2.531002041E0
7.385430000E-1,-1.171308465E0,-2.022497807E-1,-2.187186098E0,2.489307438E0
7.485100000E-1,-6.585071410E-1,7.292866632E-2,-1.840673667E0,1.956279579E0
7.584780000E-1,-5.460062002E-1,4.690754803E-1,-2.096530867E0,2.216663315E0
7.684450000E-1,-6.552269261E-1,6.613936190E-1,-2.778254231E0,2.930095633E0
7.784130000E-1,-5.684395547E-1,7.124591075E-1,-3.302628438E0,3.426087580E0
7.883800000E-1,-5.421851910E-1,8.049002248E-1,-3.661193735E0,3.787633657E0
7.983480000E-1,-8.293238984E-1,8.673167668E-1,-4.104679899E0,4.276495478E0
8.083150000E-1,-1.145805615E0,6.884114099E-1,-4.422019987E0,4.619636516E0
8.182830000E-1,-1.262677569E0,3.090665701E-1,-4.430061078E0,4.616851518E0
8.282500000E-1,-1.432680686E0,-8.347645864E-2,-4.010873603E0,4.259888417E0
8.382180000E-1,-2.100546150E0,-1.895927223E0,-1.920536107E0,3.419838169E0
8.481850000E-1,-2.151211542E0,-4.891425104E0,1.588558100E0,5.574698870E0
8.581530000E-1,-1.118065693E0,-3.280646415E0,1.484955379E0,3.770650378E0
8.681200000E-1,-5.261599463E-1,-2.206682323E0,6.077449769E-1,2.348541062E0
8.780880000E-1,5.836578105E-1,-8.357603672E-1,3.488945872E-1,1.077441072E0
8.880550000E-1,1.060862967E0,2.998928735E-1,-3.134253770E-1,1.146124530E0
8.980230000E-1,1.686732704E0,3.043326643E-1,-8.170320278E-1,1.898743511E0
9.079900000E-1,2.150703858E0,-5.278720111E-3,-1.917457548E0,2.881353571E0
9.179580000E-1,2.868242003E0,-3.988362408E-1,-2.413927088E0,3.770003517E0
9.279250000E-1,4.054000912E0,-1.747710831E0,-2.063996959E0,4.873345872E0
9.378930000E-1,3.293762305E0,-1.213573529E0,-1.005303601E0,3.651337585E0
9.478600000E-1,4.067337826E-1,6.266123338E-1,6.961578012E-2,7.502811097E-1
9.578280000E-1,-3.203455860E0,1.677901655E-1,1.789853176E0,3.673398614E0
9.677950000E-1,-3.994818611E0,-5.251184110E-1,4.828002110E0,6.288396414E0
9.777620000E-1,-1.949661381E0,-8.095982433E-1,5.151556619E0,5.567330097E0
9.877300000E-1,-5.718834186E-1,-8.421371213E-1,4.896088843E0,5.000793091E0
9.976970000E-1,1.037906214E0,-1.161568539E0,2.509095785E0,2.953312113E0
1.007665000E0,1.447152545E0,-1.107868441E0,8.687032878E-1,2.018977061E0
1.017632000E0,1.433207813E0,-2.020459687E-1,7.185625774E-1,1.615932977E0
1.027600000E0,2.155390401E0,4.845827347E-1,2.618511808E-1,2.224655984E0
1.037567000E0,2.496200920E0,2.733383283E-1,4.035303855E-1,2.543338288E0
1.047535000E0,2.347209772E0,3.672687314E-1,1.317454285E0,2.716609252E0
1.057502000E0,1.336076790E0,7.332605772E-1,2.582373092E0,2.998570167E0
1.067470000E0,9.738976210E-1,7.690059952E-1,3.363385686E0,3.584997918E0
1.077437000E0,-3.993940651E-2,8.240562880E-1,4.109176408E0,4.191180582E0
1.087405000E0,-1.256210548E0,1.746451122E-1,4.111595986E0,4.302765089E0
1.097372000E0,-1.585438026E0,-7.704444833E-1,4.150329112E0,4.509149606E0
1.107340000E0,-1.767364785E0,-1.204211844E0,4.362585379E0,4.858585765E0
1.117307000E0,-1.900864320E0,-1.461253398E0,3.817133714E0,4.507666408E0
1.127275000E0,-1.950749255E0,-3.439474042E-1,9.884355533E-1,2.213758640E0
1.137242000E0,-1.264499561E0,1.536412046E0,-9.616056043E-1,2.210024084E0
1.147210000E0,-3.924557590E-1,2.224193126E0,-1.476282204E0,2.698233817E0
1.157177000E0,-8.042962074E-2,1.956919822E0,-7.511064255E-1,2.097657021E0
1.167145000E0,-1.530251420E-1,1.954480364E0,2.408655238E-1,1.975202872E0
1.177112000E0,1.445604787E0,2.808917322E0,9.054980618E-1,3.286292206E0
1.187080000E0,-1.097399586E-1,3.162195567E0,-1.081371199E0,3.343783386E0
1.197047000E0,-9.808154619E-1,3.919042497E0,-2.087474114E0,4.547355412E0
1.207015000E0,-8.781266606E-1,2.536810125E0,-4.727269202E-1,2.725799476E0
1.216982000E0,-1.007975779E0,-7.368446280E-1,1.479361348E0,1.935837073E0
1.226950000E0,-6.260157716E-1,-1.740279605E0,1.691675502E0,2.506438680E0
1.236917000E0,4.551677316E-1,-1.236265257E0,1.911685177E0,2.321652357E0
1.246885000E0,1.764907785E0,-1.300182779E0,2.108167410E0,3.041339274E0
1.256852000E0,1.900990327E0,-1.850283273E0,1.352572078E0,2.977711141E0
1.266820000E0,1.336320619E0,-2.513921200E0,2.661044455E-1,2.859434240E0
1.276787000E0,8.783248812E-1,-2.569671770E0,-1.392192811E-1,2.719200178E0
1.286755000E0,-6.171648413E-2,-2.577077853E0,-4.568160617E-1,2.617980156E0
1.296722000E0,-9.159400195E-1,-2.727803870E0,4.189664501E-1,2.907815840E0
1.306690000E0,-1.407060234E0,-2.020684586E0,7.474226797E-1,2.573251903E0
1.316657000E0,-1.251424602E0,-1.334858084E0,1.128018531E0,2.149496556E0
1.326625000E0,-9.260182804E-1,-8.099794087E-1,1.113389382E0,1.659280692E0
1.336592000E0,-2.133219221E-1,-3.842010985E-1,1.072635459E0,1.159165024E0
1.346560000E0,4.225949398E-1,-1.700842474E-1,1.045372816E0,1.140315508E0
1.356527000E0,7.939293864E-1,-1.227307177E-1,9.144776309E-1,1.217232943E0
1.366495000E0,8.513768184E-1,-5.148642951E-1,5.419661397E-1,1.132985007E0
1.376462000E0,9.255697989E-1,-1.228055035E0,-4.289529097E-1,1.596495920E0
1.386430000E0,4.469670117E-1,-2.364938092E0,-7.603491193E-1,2.524052787E0
1.396397000E0,-4.092407763E-2,-2.807162865E0,-5.800198191E-1,2.866750970E0
1.406365000E0,-9.145863891E-2,-2.469917686E0,-4.318636537E-1,2.509056451E0
1.416332000E0,-1.713874456E-1,-1.885264241E0,-9.196091473E-2,1.895270884E0
1.426299000E0,-1.709187913E-1,-1.206405427E0,4.453993732E-1,1.297307939E0
1.436267500E0,-8.805906773E-4,-6.893194824E-1,8.369318569E-1,1.084258759E0
1.446234500E0,4.812504065E-1,-5.044704308E-1,9.746150744E-1,1.198318369E0
1.456202500E0,1.124091249E0,-3.415478531E-1,1.273525323E0,1.732657733E0
1.466169500E0,1.538764381E0,1.981728096E-1,1.341039029E0,2.050720352E0
1.476137500E0,1.286798210E0,6.312626244E-1,9.747232479E-1,1.733328459E0
1.486104500E0,6.116526711E-1,4.616309515E-1,3.682675821E-1,8.502018216E-1
1.496072500E0,1.916819617E-1,-3.494548966E-1,-1.640839809E-1,4.310269736E-1
1.506039500E0,-1.971412146E-1,-1.661990650E-1,-4.073100257E-1,4.820666393E-1
1.516007500E0,6.387758580E-1,7.381826171E-1,2.358030045E-1,1.004266513E0
1.525974500E0,1.285834005E0,1.532098555E0,8.049703914E-1,2.156078014E0
1.535942500E0,1.537515708E0,1.913577775E0,1.064710727E0,2.675694935E0
1.545909500E0,1.761792389E0,1.750238144E0,1.193052433E0,2.755108000E0
1.555877500E0,1.511181018E0,1.126691798E0,2.183083692E0,2.884260197E0
1.565844500E0,7.082691389E-1,1.267015618E0,1.685020201E0,2.224020420E0
1.575812500E0,1.562726855E-1,1.015019919E0,9.864305431E-1,1.423984482E0
1.585779500E0,-2.041993886E-2,5.391524595E-1,-4.847341776E-4,5.395392325E-1
1.595747500E0,-2.834256524E-1,-2.380382489E-1,-9.794641703E-1,1.047063689E0
1.605714500E0,-2.290597031E-1,-7.083666413E-1,-1.795333187E0,1.943572200E0
1.615682500E0,7.201351860E-1,-5.586163786E-1,-1.674364235E0,1.906342712E0
1.625649500E0,1.850774732E0,-2.433555606E-1,-1.518449399E0,2.406299569E0
1.635617500E0,2.120927204E0,1.337000942E-1,-1.612942743E0,2.667919080E0
1.645584500E0,1.873890822E0,6.964520623E-1,-2.185004502E0,2.961546380E0
1.655552500E0,1.185451345E0,9.806162180E-1,-1.660505165E0,2.263665271E0
1.665519500E0,7.464248523E-1,7.375990650E-1,7.480348831E-1,1.288704244E0
1.675487500E0,9.625943685E-1,9.990071730E-1,-2.072408178E0,2.493888311E0
1.685454500E0,4.279623914E-1,1.236717101E0,-4.391355434E0,4.582207279E0
1.695422500E0,-3.519289997E-1,-6.409384507E-1,-2.818432204E0,2.911737661E0
1.705389500E0,7.226106048E-1,-2.320633300E0,-2.726166065E0,3.652326165E0
1.715357500E0,1.750716885E0,-2.535320547E0,-3.421696460E0,4.604439874E0
1.725324500E0,2.012622883E0,-2.447955544E0,-4.510607643E0,5.512596351E0
1.735292500E0,1.058771126E0,-2.336365819E0,-4.216706704E0,4.935607051E0
1.745259500E0,5.015551552E-1,-2.103800125E0,-4.428426197E0,4.928335532E0
1.755227500E0,8.119847113E-1,-2.074488618E0,-4.213788359E0,4.766427858E0
1.765194500E0,5.213927114E-1,-2.259715107E0,-2.669298969E0,3.536003353E0
1.775162500E0,-4.057050381E-1,-1.924853691E0,-9.013009304E-1,2.163793354E0
1.785129500E0,-8.930086284E-1,-1.441193355E0,2.774345952E-1,1.717985056E0
1.795097500E0,-9.191268982E-1,-1.709450307E0,4.926834673E-1,2.002436417E0
1.805064500E0,-6.701292130E-1,-1.255172814E0,1.181352155E0,1.849357961E0
1.815032500E0,-3.600787393E-1,-9.634837300E-2,1.631945609E0,1.673973172E0
1.824999500E0,-5.739817650E-1,1.100533255E0,2.240640174E0,2.561463820E0
1.834967500E0,-1.088998307E0,1.275113135E0,2.853147708E0,3.309423313E0
1.844934500E0,-1.275555769E0,1.606623657E0,3.638208915E0,4.176702791E0
1.854902500E0,-1.350499532E0,1.582324383E0,3.677340821E0,4.224977509E0
1.864869500E0,-1.416714864E0,1.812147148E0,4.442196389E0,5.002406126E0
1.874837500E0,-1.307482882E0,1.638629854E0,4.250663824E0,4.739489659E0
1.884804500E0,-1.138822943E0,1.325445090E0,4.286621861E0,4.629130519E0
1.894772500E0,-1.226072025E0,9.659495008E-1,4.016889803E0,4.309491239E0
1.904739500E0,-1.258640505E0,6.079748090E-1,3.556805733E0,3.821606509E0
1.914707500E0,-1.181553226E0,4.781566812E-1,2.493382562E0,2.800296134E0
1.924674500E0,-9.439799036E-1,8.732451126E-1,3.069577718E0,3.328056858E0
1.934642500E0,-8.306564058E-1,1.306494556E0,2.318115782E0,2.787575805E0
1.944609500E0,-8.579036267E-1,1.252890645E0,1.478203014E0,2.119154962E0
1.954577500E0,-7.172238573E-1,1.238896212E0,9.488925880E-1,1.717460634E0
1.964544500E0,-1.032668570E0,1.744113332E-1,4.990984476E-1,1.160139194E0
1.974512500E0,-1.052230138E0,-9.110724317E-1,6.635595739E-1,1.541931434E0
1.984479500E0,-1.036348808E0,-7.976746012E-1,7.969719851E-1,1.531492072E0
1.994447500E0,-1.191551599E0,-4.158400535E-1,4.718697184E-1,1.347360083E0
2.004414500E0,-1.196452954E0,2.549899849E-1,-1.345654821E-1,1.230702008E0
2.014382500E0,-1.224614826E0,9.924343910E-1,-6.023035580E-1,1.687417278E0
2.024349500E0,-1.489638999E0,1.257670598E0,-8.321710539E-1,2.119733083E0
2.034317500E0,-1.917141360E0,7.218984139E-1,-1.522200388E0,2.552187755E0
2.044284500E0,-6.472284468E-1,-2.242979791E0,-4.335834367E0,4.924360128E0
2.054252500E0,-1.384492320E0,-8.565146206E-1,7.152977260E0,7.335906213E0
2.064219500E0,-1.639633236E0,1.118011460E0,3.704135102E-1,2.018799877E0
2.074187500E0,-6.352522893E-2,1.552747120E-1,-3.249176701E0,3.253505021E0
2.084154500E0,-4.800604250E-1,4.978517481E-1,-4.690039980E-1,8.356309741E-1
2.094122500E0,-1.128131382E0,1.177982624E-1,2.489984161E-1,1.161273894E0
2.104089500E0,1.807102097E-1,8.427186269E-1,-3.345402575E0,3.454641696E0
2.114057500E0,1.933922175E-1,-2.266760710E0,7.430410686E0,7.770882037E0
2.124024500E0,1.294656137E-1,-2.518047872E0,6.580315577E0,7.046834717E0
2.133992500E0,8.283766495E-1,1.052466658E0,-8.070864987E0,8.181244134E0
2.143959500E0,-9.467399356E-1,-1.997306102E0,5.243887662E0,5.690685898E0
2.153927500E0,-5.391526057E-1,-1.100976255E0,-8.067590547E-1,1.467547076E0
2.163894500E0,-1.044642425E0,-1.761736694E0,-2.274566889E-1,2.060759695E0
2.173862500E0,-1.739674857E0,-2.233884447E0,2.220187783E-2,2.831466273E0
2.183829500E0,-2.017497707E0,-2.639323803E0,-3.676232189E-1,3.342375497E0
2.193797500E0,-1.373102821E0,-2.183101526E0,-1.645207679E-1,2.584262121E0
2.203764500E0,-1.125599977E-1,-4.245356306E-2,1.761801159E-1,2.133342245E-1
2.213732500E0,-1.937926604E-1,-4.062784307E-2,2.448895776E-1,3.149239941E-1
2.223699500E0,-2.200384360E-1,-5.742514861E-2,5.763191164E-2,2.345975240E-1
2.233667500E0,-1.473834925E-1,7.604358774E-3,2.245330811E-2,1.492778322E-1
2.243634500E0,-1.145833170E-1,4.106794198E-2,-8.816490233E-2,1.502962488E-1
2.253602500E0,-8.690855496E-2,1.001608855E-2,9.439160228E-3,8.799157176E-2
2.263569500E0,-1.199342502E-1,-2.569780930E-2,-1.101820081E-1,1.648777629E-1
2.273537500E0,-1.826035747E-1,-6.594265974E-2,6.300667226E-2,2.041135483E-1
2.283504500E0,-2.233601661E-1,-9.273907864E-2,-9.051489830E-4,2.418493742E-1
2.293472500E0,-1.816489436E-1,-4.580385318E-2,4.849680662E-2,1.935103923E-1
2.303439500E0,-1.211193895E-1,-1.995967620E-2,3.442665160E-2,1.274891741E-1
2.313407500E0,-9.370638169E-2,-2.446803935E-3,1.676806033E-2,9.522626038E-2
2.323374500E0,-9.635451257E-2,-4.408475351E-2,4.896282971E-2,1.167262450E-1
2.333342500E0,-1.343130651E-1,-8.999474279E-2,-4.564044178E-2,1.679943544E-1
2.343309500E0,-1.708792495E-1,-1.151760602E-1,-3.800514758E-2,2.095462574E-1
2.353277500E0,-1.627843276E-1,-1.180478836E-1,-1.598044038E-3,2.010885225E-1
2.363244500E0,-1.309145903E-1,-8.991214173E-2,-2.984009564E-2,1.615959606E-1
2.373212500E0,-1.008511128E-1,-5.605166506E-2,3.950846672E-2,1.219575953E-1
2.383179500E0,-1.016698874E-1,-4.012455312E-2,2.109090686E-3,1.093215168E-1
2.393147500E0,-1.296086513E-1,-7.121308411E-2,3.386473417E-2,1.517119839E-1
2.403115500E0,-1.583037524E-1,-6.634998227E-2,6.113439381E-2,1.822081565E-1
2.413082500E0,-1.254940021E-1,-2.982641864E-2,3.092475414E-2,1.326450159E-1
2.423050500E0,-1.194399778E-1,-8.683014745E-3,-4.642981589E-2,1.284407678E-1
2.433017500E0,-1.262350454E-1,-2.152699951E-2,8.474077284E-2,1.535568200E-1
2.442984875E0,-1.392135070E-1,-1.058237311E-2,-2.690245450E-2,1.421834350E-1
2.452951875E0,-1.542996340E-1,-5.219721248E-2,-3.331626534E-2,1.662615397E-1
2.462919875E0,-1.701092077E-1,-7.442571798E-2,5.112337589E-2,1.925874597E-1
2.472886875E0,-1.484385860E-1,-7.313914781E-2,-3.806888223E-2,1.698016153E-1
2.482854875E0,-1.023223636E-1,-3.689328125E-2,4.130356193E-2,1.163484616E-1
2.492821875E0,-9.863982372E-2,-5.039578127E-3,-5.522285879E-2,1.131581915E-1
2.502789875E0,-9.507667668E-2,-2.416865277E-2,1.591027379E-2,9.938226722E-2
2.512756875E0,-1.243246138E-1,-3.204218903E-2,2.446475029E-2,1.306974961E-1
2.522724875E0,-1.357802412E-1,-5.937374236E-2,6.640682817E-2,1.623926784E-1
2.532691875E0,-1.238886674E-1,-6.554669817E-2,5.955330670E-2,1.522871232E-1
2.542659875E0,-1.175054082E-1,-6.761156929E-2,1.976709723E-2,1.370021292E-1
2.552626875E0,-9.061788239E-2,-5.331757098E-2,1.440987825E-2,1.061226110E-1
2.562594875E0,-8.002316616E-2,-5.082274678E-2,-6.579813302E-2,1.153952036E-1
2.572561875E0,-1.004342794E-1,-6.318270086E-2,-2.760528982E-2,1.218242594E-1
2.582529875E0,-1.204613767E-1,-7.544850564E-2,2.510735929E-2,1.443391831E-1
2.592496875E0,-1.140296222E-1,-6.943490015E-2,2.184110463E-2,1.352811663E-1
2.602464875E0,-1.134311963E-1,-4.604968292E-2,7.366088390E-2,1.428745443E-1
2.612431875E0,-1.055414934E-1,-2.911659406E-2,3.911085606E-2,1.162602337E-1
2.622399875E0,-1.039630923E-1,-1.480475717E-2,6.813175678E-3,1.052327172E-1
2.632366875E0,-1.003892376E-1,-2.199859573E-2,-7.982618809E-3,1.030808393E-1
2.642334875E0,-1.108659131E-1,-3.421701978E-2,-3.595219016E-2,1.214685766E-1
2.652301875E0,-1.241290793E-1,-4.699793684E-2,-2.996698022E-3,1.327622484E-1
2.662269875E0,-1.173830552E-1,-3.834641027E-2,1.828307390E-2,1.248338881E-1
2.672236875E0,-1.147910393E-1,-3.384631544E-2,2.025475502E-2,1.213787909E-1
2.682204875E0,-1.139516715E-1,-3.675704112E-2,1.683296442E-2,1.209107613E-1
2.692171875E0,-1.085244321E-1,-2.805364335E-2,1.401343703E-2,1.129643116E-1
2.702139875E0,-1.013803041E-1,-2.603690213E-2,6.848843694E-3,1.048941990E-1
2.712106875E0,-9.465238810E-2,-3.657724381E-2,1.090739608E-2,1.020585157E-1
2.722074875E0,-9.718763117E-2,-4.586936940E-2,2.679603517E-2,1.107585762E-1
2.732041875E0,-1.029360654E-1,-4.777900608E-2,-4.164386988E-3,1.135605966E-1
2.742009875E0,-1.016919241E-1,-5.762313168E-2,1.202596843E-2,1.175001985E-1
2.751976875E0,-1.018392922E-1,-4.949526438E-2,-3.369165659E-3,1.132800685E-1
2.761944875E0,-1.008746113E-1,-4.767773048E-2,-3.793673515E-3,1.116389051E-1
2.771911875E0,-9.457012508E-2,-3.888889027E-2,1.763988018E-2,1.037642507E-1
2.781879875E0,-9.480112664E-2,-4.294900496E-2,1.796030760E-2,1.056145979E-1
2.791847875E0,-8.961055331E-2,-5.106161468E-2,3.160010755E-2,1.078698593E-1
2.801814875E0,-8.826499935E-2,-4.465419922E-2,9.285378456E-4,9.892203901E-2
2.811782875E0,-9.969195709E-2,-4.157755880E-2,-3.988970518E-3,1.080883508E-1
2.821749875E0,-1.013989603E-1,-2.981617687E-2,1.324803650E-2,1.065188435E-1
2.831717875E0,-9.886622060E-2,-4.390700729E-2,-1.980802774E-2,1.099759648E-1
2.841684875E0,-9.491067057E-2,-3.975259711E-2,4.084163189E-2,1.107083703E-1
2.851652875E0,-9.742151979E-2,-2.572455117E-2,-4.519897699E-4,1.007616462E-1
2.861619875E0,-9.313066849E-2,-3.014277128E-2,3.280112565E-2,1.032367276E-1
2.871587875E0,-1.049871956E-1,-2.640397936E-2,-1.073782682E-2,1.087877856E-1
2.881554875E0,-9.740399642E-2,-2.971438964E-2,-2.931209207E-3,1.018777476E-1
2.891522875E0,-9.766271744E-2,-3.569166016E-2,-4.852019548E-3,1.040934344E-1
2.901489875E0,-8.745336927E-2,-2.550250316E-2,9.093589783E-3,9.154869109E-2
2.911457875E0,-9.389828000E-2,-3.676758438E-2,2.782982290E-2,1.046099483E-1
2.921424875E0,-9.611086641E-2,-3.572066783E-2,1.347783208E-2,1.034162304E-1
2.931392875E0,-8.474413499E-2,-4.547939667E-2,1.709024191E-2,9.768326523E-2
2.941359875E0,-7.658175085E-2,-4.543026178E-2,4.837401509E-3,8.917440048E-2
2.951327875E0,-8.795367166E-2,-4.268453722E-2,-3.221815825E-3,9.781716707E-2
2.961294875E0,-8.081104193E-2,-4.307683057E-2,2.733748734E-2,9.556869803E-2
2.971262875E0,-7.423756555E-2,-4.128266727E-2,2.241997898E-2,8.785288961E-2
2.981229875E0,-8.205034101E-2,-4.425602211E-2,8.216507435E-3,9.358613651E-2
2.991197875E0,-8.721725140E-2,-4.687980481E-2,1.437479496E-2,1.000559832E-1
3.001164875E0,-7.788586266E-2,-4.110045341E-2,-7.308434844E-3,8.836780009E-2
3.011132875E0,-9.796028590E-2,-4.850298274E-2,-9.442025363E-2,1.444435573E-1
3.021099875E0,-9.252877073E-2,-3.335989106E-2,5.200104296E-2,1.112589961E-1
3.031067875E0,-5.484638946E-2,-8.720848057E-4,1.984270173E-1,2.058692988E-1
3.041035875E0,-5.726715501E-2,-2.542771362E-3,-7.565127611E-2,9.491632266E-2
3.051002875E0,-6.757778792E-2,-3.175563435E-2,1.592401475E-1,1.758766679E-1
3.060970875E0,-8.608258093E-2,-2.493604501E-2,2.828005850E-2,9.397754407E-2
3.070937875E0,-7.643293921E-2,-4.234841368E-2,-2.228256941E-2,9.017702167E-2
3.080905875E0,-9.674594712E-2,-4.729926945E-2,-8.993836284E-2,1.403064798E-1
3.090872875E0,-7.727820905E-2,-7.982783262E-2,5.768804491E-2,1.251891169E-1
3.100840875E0,-6.623908617E-2,-5.776568497E-2,8.160374165E-3,8.826710940E-2
3.110807875E0,-7.352795111E-2,-4.925782174E-2,-7.311650813E-2,1.147985904E-1
3.120775875E0,-7.262132205E-2,-4.420771862E-2,4.485223711E-2,9.612440884E-2
3.130742875E0,-8.858155299E-2,-3.873563840E-2,-7.203828156E-2,1.205680522E-1
3.140710875E0,-8.084687440E-2,-2.402285610E-2,4.399211168E-2,9.512423774E-2
3.150677875E0,-7.779873915E-2,-1.717994185E-3,4.191401124E-2,8.838766687E-2
3.160645875E0,-7.170700025E-2,-4.935095692E-3,4.328050554E-2,8.390143749E-2
3.170612875E0,-9.084320119E-2,-2.770365095E-3,9.015821815E-3,9.133152341E-2
3.180580875E0,-9.136120968E-2,-2.205540508E-2,1.906133831E-2,9.589914569E-2
3.190547875E0,-8.120496154E-2,-1.027885694E-2,-4.079719305E-2,9.145661069E-2
3.200515875E0,-8.286334153E-2,-1.710076690E-2,-9.646736383E-3,8.515767212E-2
3.210482875E0,-7.318864815E-2,-8.493482731E-3,2.809236288E-2,7.885365127E-2
3.220450875E0,-6.253282852E-2,-2.706159012E-2,2.885951757E-2,7.399700033E-2
3.230418875E0,-7.293645043E-2,-3.093774593E-2,2.976817489E-2,8.463459198E-2
3.240385875E0,-8.336346120E-2,-4.975372044E-2,3.472369015E-2,1.031049660E-1
3.250353875E0,-7.359100968E-2,-4.780103364E-2,2.257025242E-3,8.778194396E-2
3.260320875E0,-7.205498267E-2,-4.615426585E-2,3.475584984E-2,9.235857232E-2
3.270288875E0,-4.761310961E-2,-4.717447707E-2,-9.236846566E-3,6.765913707E-2
3.280255875E0,-4.698924825E-2,-4.593571703E-2,-2.658027291E-2,7.088434565E-2
3.290223875E0,-5.748434253E-2,-4.999847210E-2,3.670297265E-3,7.627429403E-2
3.300190875E0,-7.591469318E-2,-5.131430576E-2,4.133396745E-3,9.172395316E-2
3.310158875E0,-9.074125864E-2,-4.277542488E-2,1.507002890E-2,1.014436729E-1
3.320125875E0,-7.875548981E-2,-2.378714936E-2,2.122539282E-2,8.496336240E-2
3.330093875E0,-6.908898253E-2,-7.316017952E-3,2.438873649E-2,7.363166502E-2
3.340060875E0,-6.487785436E-2,3.454699460E-3,1.467007935E-2,6.660542142E-2
3.350028875E0,-6.795261271E-2,3.146331925E-3,-3.577326536E-3,6.811941166E-2
3.359995875E0,-7.641192578E-2,-3.236625725E-3,7.513672113E-3,7.684863965E-2
3.369963875E0,-7.070964798E-2,-1.608845855E-2,-1.606230140E-3,7.253463167E-2
3.379931875E0,-7.582910456E-2,-1.936665433E-2,9.336249232E-3,7.881805597E-2
3.389898875E0,-7.228569187E-2,-1.890411216E-2,-1.726682782E-3,7.473665860E-2
3.399866875E0,-5.324993514E-2,-1.895872881E-2,2.388646066E-2,6.136409368E-2
3.409833875E0,-7.050963666E-2,-2.242422734E-2,8.775501251E-3,7.450814893E-2
3.419801875E0,-6.816007923E-2,-3.977974098E-2,2.435657680E-2,8.259217292E-2
3.429768875E0,-5.879992951E-2,-4.895272499E-2,1.853158057E-2,7.872242674E-2
3.439740583E0,-5.914864283E-2,-4.680962909E-2,-2.711938620E-3,7.547885754E-2
3.449707583E0,-5.160485756E-2,-4.338788417E-2,-1.168215215E-2,6.842545210E-2
3.459675583E0,-4.476471160E-2,-3.667885289E-2,-2.089210153E-3,5.791012392E-2
3.469642583E0,-5.165148910E-2,-3.631982471E-2,9.751401544E-3,6.389128129E-2
3.479610583E0,-5.609182812E-2,-3.506801806E-2,1.545126736E-2,6.793232468E-2
3.489577583E0,-6.979686107E-2,-2.912794132E-2,1.771413982E-2,7.767772867E-2
3.499545583E0,-6.400329363E-2,-2.384394044E-2,3.269821465E-2,7.572402744E-2
3.509512583E0,-6.645652950E-2,-1.764467672E-2,-1.444262266E-2,7.025947821E-2
3.519480583E0,-5.913146663E-2,-1.362186545E-2,3.047510326E-2,6.790300055E-2
3.529448583E0,-6.126708906E-2,-1.379335332E-2,-8.440455794E-3,6.336524356E-2
3.539415583E0,-5.834121544E-2,-1.632824921E-2,2.076112390E-2,6.404165368E-2
3.549383583E0,-6.538531959E-2,-2.243861698E-2,6.701493859E-3,6.945244106E-2
3.559350583E0,-6.619779021E-2,-1.913122167E-2,1.449934065E-2,7.041577913E-2
3.569318583E0,-6.991833698E-2,-1.278137388E-2,7.624769211E-3,7.148478488E-2
3.579285583E0,-7.458481707E-2,-2.374354192E-2,5.239689946E-3,7.844810431E-2
3.589253583E0,-5.763267908E-2,-3.221886174E-2,-2.682117820E-3,6.608157463E-2
3.599220583E0,-4.839137401E-2,-2.687864536E-2,-7.303172350E-3,5.583478290E-2
3.609188583E0,-5.693006303E-2,-2.444726346E-2,1.692768931E-3,6.198036975E-2
3.619155583E0,-6.633139908E-2,-2.404523998E-2,-3.003890097E-2,7.668352914E-2
3.629123583E0,-5.850128297E-2,-4.371823358E-2,5.065910697E-2,8.888210830E-2
3.639090583E0,-4.621251874E-2,-1.736488746E-2,1.005206537E-1,1.119890085E-1
3.649058583E0,-6.151351266E-2,-2.869172989E-2,-6.458658993E-2,9.369394432E-2
3.659026583E0,-5.347476058E-2,-4.589571842E-2,8.721765339E-2,1.121288814E-1
3.668993583E0,-5.962632380E-2,-3.916367286E-2,-1.994894564E-2,7.407463935E-2
3.678961583E0,-4.194975235E-2,-4.229365085E-2,3.872026205E-3,5.969528634E-2
3.688928583E0,-5.388644110E-2,-4.194580548E-2,-8.400694728E-3,6.880240405E-2
3.698896583E0,-5.124861594E-2,-2.640154911E-2,3.621589959E-2,6.808122953E-2
3.708863583E0,-4.581984166E-2,-2.003576766E-2,2.699074745E-3,5.008168208E-2
3.718831583E0,-5.633708227E-2,-3.263774165E-2,1.813046157E-2,6.758552105E-2
3.728798583E0,-4.524301384E-2,-2.176815148E-2,1.874675810E-2,5.359313071E-2
3.738766583E0,-5.766626403E-2,-1.834235919E-2,-2.854727626E-2,6.690879710E-2
3.748733583E0,-5.367875531E-2,-1.578947397E-2,1.082553506E-2,5.699042437E-2
3.758701583E0,-5.962614108E-2,-1.601854778E-2,-1.591612101E-3,6.176085979E-2
3.768669583E0,-6.392782800E-2,-1.005066935E-2,-1.804977000E-2,6.718316265E-2
3.778636583E0,-6.447706427E-2,-7.160884012E-3,5.163676143E-3,6.507867261E-2
3.788604583E0,-6.086717606E-2,-1.283418154E-2,5.472409129E-3,6.244578928E-2
3.798571583E0,-6.278012920E-2,-1.335809207E-2,2.928519487E-2,7.055073270E-2
3.808539583E0,-6.585868824E-2,-1.126689021E-2,3.737657189E-2,7.655924346E-2
3.818506583E0,-4.574510694E-2,-1.561541880E-2,-9.302920103E-4,4.834585356E-2
3.828474583E0,-4.293354638E-2,-2.422616562E-2,1.644295514E-2,5.196698258E-2
3.838441583E0,-4.432792459E-2,-3.581150067E-2,2.214574456E-2,6.113806082E-2
3.848409583E0,-5.110473789E-2,-4.264246468E-2,-7.478588820E-3,6.697763298E-2
3.858376583E0,-4.380383134E-2,-3.974909792E-2,2.264626622E-3,5.919370709E-2
3.868344583E0,-4.333875842E-2,-4.355297665E-2,3.954705834E-2,7.306900561E-2
3.878312583E0,-4.326987091E-2,-3.157458080E-2,7.846963406E-4,5.357099616E-2
3.888279583E0,-4.539266601E-2,-4.403032872E-2,1.008118451E-2,6.403744417E-2
3.898247583E0,-4.614209633E-2,-3.238813863E-2,1.503026783E-2,5.834375313E-2
3.908214583E0,-4.683371231E-2,-2.163943050E-2,9.799348712E-3,5.251370104E-2
3.918182583E0,-4.869955882E-2,-2.028074772E-2,6.066486239E-3,5.310139370E-2
3.928149583E0,-4.844652057E-2,-1.526693389E-2,-1.557113528E-3,5.081898492E-2
3.938117583E0,-4.212622862E-2,-9.409503881E-3,6.689214706E-3,4.367955465E-2
3.948084583E0,-5.552592728E-2,-1.215711965E-2,2.300996304E-2,6.132195820E-2
3.958052583E0,-5.735749450E-2,-1.449205904E-2,1.268553436E-2,6.050474967E-2
3.968019583E0,-5.669792857E-2,-6.733306367E-3,9.395890832E-3,5.786428331E-2
3.977987583E0,-4.623331290E-2,-3.373386618E-3,4.017621875E-3,4.652999295E-2
3.987955583E0,-4.772903066E-2,-1.067755482E-2,1.166402578E-2,5.028041410E-2
3.997922583E0,-4.700174667E-2,-1.452390810E-2,2.274566889E-2,5.419846446E-2
4.007890583E0,-4.689693533E-2,-7.684273766E-3,1.707094610E-2,5.049542363E-2
4.017857583E0,-3.987870511E-2,-2.592202261E-2,-7.309019566E-4,4.756886161E-2
4.027825583E0,-4.165457759E-2,-4.403048404E-2,1.154942036E-2,6.170232142E-2
4.037792583E0,-4.878229693E-2,-4.075512051E-2,8.712351322E-3,6.416071545E-2
4.047760583E0,-4.197822098E-2,-2.663906484E-2,1.276154816E-2,5.132901639E-2
4.057727583E0,-3.896102116E-2,-4.141004520E-2,2.264743567E-2,6.120179209E-2
4.067695583E0,-4.231465515E-2,-4.459237405E-2,2.639257729E-2,6.689976084E-2
4.077663583E0,-4.447955020E-2,-3.197632106E-2,2.600256801E-3,5.484229052E-2
4.087630583E0,-4.691433080E-2,-1.826747828E-2,2.904312015E-3,5.042906131E-2
4.097598583E0,-5.123301119E-2,-2.124879995E-2,5.116313696E-4,5.546705961E-2
4.107565583E0,-4.250695545E-2,-1.733990888E-2,9.201763272E-3,4.682078758E-2
4.117533583E0,-4.690164965E-2,-9.390737973E-3,-3.195795715E-2,5.752618295E-2
4.127500583E0,-4.307219848E-2,-1.850737858E-2,9.424834549E-2,1.052638968E-1
4.137468583E0,-4.867931284E-2,-3.935733447E-3,-3.149076462E-2,5.811053048E-2
4.147435583E0,-3.974513277E-2,-2.808854392E-2,2.869871914E-2,5.650007397E-2
4.157403583E0,-5.021639965E-2,-1.228929413E-2,8.642769456E-3,5.241575153E-2
4.167371583E0,-4.833630055E-2,-1.563559170E-2,-3.221464992E-2,6.015524373E-2
4.177338583E0,-4.876256257E-2,-1.770572531E-2,6.416734457E-3,5.227288684E-2
4.187306583E0,-5.485437457E-2,-1.782785903E-2,5.081230402E-3,5.790210591E-2
4.197273583E0,-3.982140239E-2,-1.924343339E-2,8.232879639E-3,4.498704396E-2
4.207241583E0,-4.409889646E-2,-2.053023197E-2,3.384309947E-2,5.925840426E-2
4.217208583E0,-4.725847598E-2,-2.542509151E-2,2.651302993E-2,5.985599040E-2
4.227176583E0,-4.651237126E-2,-1.762656863E-2,-7.455784678E-3,5.029597725E-2
4.237143583E0,-3.799824055E-2,-2.671158859E-2,4.989019811E-2,6.816455910E-2
4.247111583E0,-3.256091472E-2,-2.604565468E-2,-2.075527668E-2,4.657650486E-2
4.257078583E0,-2.343373999E-2,-1.736634012E-2,1.562434494E-2,3.308851907E-2
4.267046583E0,-3.352343950E-2,-2.916287843E-2,1.113660693E-2,4.580740648E-2
4.277014583E0,-4.160940785E-2,-3.640901302E-2,1.024315238E-2,5.623060751E-2
4.286981583E0,-3.843418702E-2,-2.559863504E-2,-5.761846304E-3,4.653682113E-2
4.296949583E0,-4.802705593E-2,-2.226129103E-2,2.807306707E-2,5.991878065E-2
4.306916583E0,-4.394094855E-2,-1.013224714E-2,1.521211624E-2,4.759073305E-2
4.316884583E0,-3.712313164E-2,-1.770296616E-2,6.683367491E-3,4.166760510E-2
4.326851583E0,-3.648636986E-2,-2.534937006E-2,1.506710529E-2,4.691336067E-2
4.336819583E0,-4.205661021E-2,-1.852968022E-2,-1.699785590E-3,4.598909417E-2
4.346787583E0,-4.145292174E-2,-2.014797024E-2,-3.939853907E-3,4.625805740E-2
4.356754583E0,-3.952454656E-2,-1.769639717E-2,2.376308441E-2,4.939672494E-2
4.366722583E0,-3.944451280E-2,-1.501782423E-2,2.257493019E-2,4.786472718E-2
4.376689583E0,-3.427984994E-2,-1.955292469E-2,1.704521835E-2,4.298795697E-2
4.386657583E0,-4.431001749E-2,-1.713247891E-2,2.693519890E-2,5.461139463E-2
4.396624583E0,-4.104478609E-2,-1.624372954E-2,-1.332171142E-2,4.610858065E-2
4.406592583E0,-4.115328848E-2,-1.790652235E-2,2.099150419E-3,4.492931257E-2
4.416559583E0,-4.600413859E-2,-1.800974398E-2,2.844670415E-3,4.948559179E-2
4.426527583E0,-3.440962158E-2,-1.606613863E-2,1.378071785E-2,4.039865162E-2
4.436495583E0,-3.731583394E-2,-1.745611316E-2,4.192629039E-2,5.877925804E-2
4.446463000E0,-4.059034780E-2,-2.070283446E-2,2.920567274E-2,5.412166858E-2
4.456431000E0,-3.832480755E-2,-3.160221803E-2,2.771638691E-2,5.688311842E-2
4.466398000E0,-3.824941501E-2,-2.321474349E-2,-4.756709933E-3,4.499520367E-2
4.476366000E0,-3.680445839E-2,-2.687686379E-2,-2.405895352E-2,5.153413635E-2
4.486333000E0,-3.151992761E-2,-1.926250080E-2,-1.551967978E-2,4.006757085E-2
4.496301000E0,-2.848778084E-2,-1.501349363E-2,3.525871038E-4,3.220377254E-2
4.506268000E0,-3.595982809E-2,-9.705126313E-3,3.583407640E-2,5.168539198E-2
4.516236000E0,-5.071549606E-2,-1.320534269E-2,4.556676686E-2,6.944618678E-2
4.526204000E0,-5.046684321E-2,-2.062424423E-2,4.542117119E-2,7.096016140E-2
4.536171000E0,-3.693978488E-2,-1.695111472E-2,9.349113107E-3,4.170484281E-2
4.546139000E0,-2.900807340E-2,-2.293768597E-2,-9.505233765E-3,3.818317992E-2
4.556106000E0,-3.570488948E-2,-2.080572719E-2,-2.701705992E-2,4.937245126E-2
4.566074000E0,-3.220704854E-2,-2.820559787E-2,-2.341809869E-2,4.879812571E-2
4.576041000E0,-3.657247011E-2,-2.188715145E-2,3.080313206E-3,4.273267248E-2
4.586009000E0,-3.843659900E-2,-1.293603273E-2,2.104529858E-2,4.569045500E-2
4.595977000E0,-4.085325323E-2,-1.405329860E-2,4.185729325E-2,6.015410625E-2
4.605944000E0,-4.150386561E-2,-1.395255290E-3,4.635380208E-2,6.223497863E-2
4.615912000E0,-2.827589236E-2,-6.725083720E-3,2.330583215E-2,3.725472657E-2
4.625879000E0,-3.245950207E-2,-1.764920832E-2,6.095137596E-3,3.744682271E-2
4.635847000E0,-3.772027854E-2,-2.146972421E-2,-2.039450347E-2,4.795523165E-2
4.645814000E0,-2.879158024E-2,-2.092516570E-2,-1.948701560E-2,4.057784407E-2
4.655782000E0,-4.275155179E-2,-1.795752103E-2,-9.156154990E-3,4.726524005E-2
4.665749000E0,-4.889478274E-2,-9.107020106E-3,1.180026591E-2,5.111637575E-2
4.675717000E0,-4.511770070E-2,-1.902300250E-3,5.177417099E-2,6.870073103E-2
4.685685000E0,-4.420860484E-2,-1.291494621E-3,4.968905389E-2,6.652120547E-2
4.695652000E0,-3.768070020E-2,-6.359742377E-3,4.236307740E-2,5.705183448E-2
4.705620000E0,-2.546071384E-2,-3.039814842E-2,1.871810675E-2,4.384818009E-2
4.715587000E0,-1.772693060E-2,-2.739453424E-2,-7.772119045E-3,3.354266550E-2
4.725555000E0,-1.761086337E-2,-3.237744005E-2,-2.452790022E-2,4.427255383E-2
4.735522000E0,-2.270963542E-2,-4.114923198E-2,-2.182297826E-2,5.181919734E-2
4.745490000E0,-3.926376075E-2,-3.913563363E-2,-1.238557220E-2,5.680354854E-2
4.755458000E0,-4.487650305E-2,-2.255985534E-2,2.250300944E-2,5.503846866E-2
4.765425000E0,-3.832937568E-2,-8.861720273E-3,4.017504930E-2,5.622904688E-2
4.775393000E0,-4.412736509E-2,-1.406265414E-2,6.323237479E-2,7.837930730E-2
4.785360000E0,-3.677606285E-2,-1.408744999E-2,4.287821710E-2,5.821921116E-2
4.795328000E0,-2.305334207E-2,-1.639718240E-2,8.145171404E-4,2.830172449E-2
4.805295000E0,-1.441828363E-2,-1.350589871E-2,-1.684992135E-2,2.596567065E-2
4.815263000E0,-2.418920025E-2,-1.532346002E-2,-1.968874454E-2,3.475014385E-2
4.825231000E0,-3.449579492E-2,-1.543034529E-2,-3.090370417E-2,4.881694741E-2
4.835198000E0,-4.639071263E-2,-1.377960322E-2,1.476480424E-2,5.059619677E-2
4.845166000E0,-5.360259533E-2,7.023419626E-4,2.339470983E-3,5.365822057E-2
4.855133000E0,-5.475365628E-2,2.216588091E-3,4.288932681E-3,5.496609029E-2
4.865101000E0,-4.393257972E-2,-2.435292229E-3,4.486100793E-2,6.283718836E-2
4.875068000E0,-1.828409716E-2,1.775726303E-4,1.028022373E-1,1.044157063E-1
4.885036000E0,-9.055546336E-3,1.029100819E-3,-3.012368560E-2,3.147218458E-2
4.895004000E0,-1.215632480E-2,-1.788826807E-2,5.505212009E-2,5.914813855E-2
4.904971000E0,-3.228350088E-2,-2.881698822E-2,-7.518349886E-2,8.674792066E-2
4.914939000E0,-3.520502564E-2,-5.038553037E-2,9.708132148E-3,6.222815545E-2
4.924906000E0,-4.708167080E-2,-3.673989234E-2,-4.312789321E-2,7.366490743E-2
4.934874000E0,-2.934567701E-2,-3.069605492E-2,9.426296353E-3,4.350024839E-2
4.944841000E0,-2.929908201E-2,-1.690333201E-2,2.829467654E-2,4.409929206E-2
4.954809000E0,-2.304972410E-2,-2.801848697E-3,6.063153327E-2,6.492551858E-2
4.964776000E0,-2.788880669E-2,-9.325477565E-3,2.156687021E-2,3.646751926E-2
4.974744000E0,-3.187814265E-2,-1.595326910E-2,1.947122812E-2,4.061836406E-2
4.984712000E0,-3.332978703E-2,-1.603857449E-2,2.591719866E-2,4.516427528E-2
4.994679000E0,-1.545539696E-2,-2.375069562E-2,2.622593164E-2,3.861041736E-2
5.004647000E0,-1.223332532E-2,-2.625725079E-2,-1.508289278E-2,3.265870668E-2
5.014614000E0,-1.377699025E-2,-2.084216265E-2,-3.398401737E-3,2.521409008E-2
5.024582000E0,-3.008019693E-2,-2.038019607E-2,-2.419870198E-2,4.365487163E-2
5.034550000E0,-4.090017714E-2,-1.554487763E-2,-6.078180671E-3,4.417478908E-2
5.044517000E0,-4.271972101E-2,-1.685635328E-2,3.553996146E-2,5.807064723E-2
5.054485000E0,-3.827832218E-2,-7.927527074E-3,5.081113458E-2,6.410808866E-2
5.064452000E0,-3.575912241E-2,-1.122232346E-2,3.569315851E-2,5.175574310E-2
5.074420000E0,-3.155574180E-2,-1.429482515E-2,1.922856867E-2,3.962126601E-2
5.084387000E0,-2.204133522E-2,-2.006864911E-2,-2.328361273E-3,2.989970571E-2
5.094355000E0,-2.210905328E-2,-1.264750005E-2,-8.767899871E-3,2.693780917E-2
5.104323000E0,-2.372452933E-2,-1.622339219E-2,-1.426720619E-3,2.877650566E-2
5.114290000E0,-2.357615624E-2,-5.079394011E-3,3.517684937E-3,2.437230998E-2
5.124258000E0,-3.213487197E-2,-1.903009225E-2,6.829547882E-4,3.735319042E-2
5.134225000E0,-3.415556006E-2,-2.537955632E-2,1.761239827E-2,4.605345519E-2
5.144193000E0,-4.201542389E-2,-2.283668445E-2,1.747615814E-2,5.091390875E-2
5.154160000E0,-3.333483025E-2,-1.017577236E-2,3.349752903E-2,4.834089058E-2
5.164128000E0,-2.406078078E-2,-1.204635146E-2,2.242114842E-2,3.502490045E-2
5.174096000E0,-2.438869994E-2,-7.921670722E-3,1.898298562E-2,3.190478483E-2
5.184063000E0,-1.412584975E-2,-1.599138563E-2,-1.520860791E-3,2.139105101E-2
5.194031000E0,-2.447651781E-2,-1.660429261E-2,8.967289925E-3,3.090654859E-2
5.203998000E0,-2.574879885E-2,-1.373217682E-2,3.729354143E-3,2.941906533E-2
5.213966000E0,-2.674406804E-2,-1.655143012E-2,5.827335119E-3,3.198676053E-2
5.223933000E0,-2.970805820E-2,-1.609207652E-2,1.038465500E-3,3.380239724E-2
5.233901000E0,-2.873891875E-2,-1.369203203E-2,6.435445547E-3,3.247787172E-2
5.243869000E0,-2.466808721E-2,-1.334014842E-2,1.153012455E-2,3.032190394E-2
5.253836000E0,-2.929305207E-2,-4.059045743E-3,1.827196419E-2,3.476238524E-2
5.263804000E0,-3.316697862E-2,-6.909325831E-3,2.516349256E-2,4.220176077E-2
5.273771000E0,-3.443447225E-2,-1.821301695E-2,1.423855484E-2,4.147509264E-2
5.283739000E0,-2.850009654E-2,-2.160689623E-2,2.566927671E-3,3.585669512E-2
5.293706000E0,-1.572045855E-2,-9.183280589E-3,1.020865381E-2,2.087299864E-2
5.303674000E0,-1.923185773E-2,-9.688863745E-3,-4.004173279E-3,2.190369458E-2
5.313642000E0,-1.893379591E-2,-1.897341994E-2,9.408169985E-4,2.682096994E-2
5.323609000E0,-2.289904866E-2,-1.632238372E-2,2.564354897E-2,3.805756487E-2
5.333577000E0,-3.025005855E-2,-7.338283053E-3,1.756503582E-2,3.574138950E-2
5.343544000E0,-3.191264123E-2,-1.471331220E-2,3.134049118E-2,4.708635273E-2
5.353512000E0,-3.236503299E-2,-9.179388536E-3,2.985062063E-2,4.497572775E-2
5.363480000E0,-3.319877286E-2,-1.405566489E-2,2.151775360E-4,3.605227505E-2
5.373447000E0,-2.399222218E-2,-1.017251984E-2,2.417355895E-2,3.554529276E-2
5.383415000E0,-2.264213663E-2,-2.085945762E-2,-2.791870058E-2,4.156004289E-2
5.393382000E0,-1.240537964E-2,-2.290483193E-2,3.076220155E-2,4.030927702E-2
5.403350000E0,-2.126844294E-2,-1.792413709E-2,-1.669555485E-2,3.244014346E-2
5.413317000E0,-2.700350169E-2,-2.950451114E-2,-3.674975038E-3,4.016479457E-2
5.423285000E0,-4.405241109E-2,-2.960954175E-2,-1.625701368E-2,5.551243446E-2
5.433253000E0,-8.455640282E-2,-4.978932451E-2,-1.421616000E-1,1.727387698E-1
5.443215833E0,-8.747193418E-2,-4.090631671E-2,-6.385159492E-3,9.677518421E-2
5.453183833E0,2.872992866E-3,3.840274910E-2,2.172766864E-1,2.206630547E-1
5.463150833E0,9.108405165E-2,9.570558127E-2,1.005247468E-1,1.660153230E-1
5.473118833E0,6.696330037E-2,4.873564711E-2,1.503722602E-1,1.716713824E-1
5.483085833E0,-3.220412493E-2,-3.331960922E-2,7.193186224E-2,8.556573395E-2
5.493053833E0,-1.162994383E-1,-1.159145544E-1,-1.963103253E-1,2.559286757E-1
5.503021833E0,-1.326579742E-1,-1.289937434E-1,-7.429764569E-2,1.993932399E-1
5.512988833E0,-5.353608325E-2,-5.444929043E-2,-2.833619177E-2,8.144800306E-2
5.522956833E0,7.107553750E-2,2.100224845E-2,9.591889501E-2,1.212157617E-1
5.532923833E0,9.500636391E-2,3.237855468E-2,5.892882407E-2,1.163923807E-1
5.542891833E0,3.436719272E-2,1.118718535E-3,1.339176106E-1,1.382616429E-1
5.552859833E0,-6.669809259E-2,-3.738265665E-2,-1.181634575E-1,1.407433880E-1
5.562826833E0,-1.247629905E-1,-7.730823998E-2,-5.452645540E-2,1.565742703E-1
5.572794833E0,-8.150053829E-2,-5.372199730E-2,5.865868270E-2,1.138825351E-1
5.582761833E0,1.067701578E-3,1.689994245E-2,3.471433461E-2,3.862425493E-2
5.592729833E0,4.671698727E-2,5.294281927E-2,1.282709545E-1,1.464201379E-1
5.602696833E0,3.630397327E-2,5.930175765E-2,2.601309299E-2,7.423852062E-2
5.612664833E0,-1.866409309E-2,-1.012063494E-2,-1.018286759E-1,1.040185313E-1
5.622632833E0,-8.180890583E-2,-5.007949258E-2,-3.566333771E-2,1.023353620E-1
5.632599833E0,-9.130975418E-2,-5.980203263E-2,7.461047173E-3,1.094048515E-1
5.642567833E0,-4.107435107E-2,-1.144548610E-2,7.019640863E-2,8.213182850E-2
5.652534833E0,4.674812369E-3,2.579859154E-2,9.264913201E-2,9.628750105E-2
5.662502833E0,2.614893112E-2,2.208021007E-2,4.699641109E-2,5.813746581E-2
5.672470833E0,1.964372098E-3,-1.045204416E-2,-6.736927986E-2,6.820354722E-2
5.682437833E0,-2.800538555E-2,-3.629994418E-2,-3.474064708E-2,5.752303996E-2
5.692405833E0,-2.715121698E-2,-4.238429183E-2,-1.209204197E-3,5.034956755E-2
5.702372833E0,-1.493389841E-2,-2.961497784E-2,2.409228265E-2,4.099397904E-2
5.712340833E0,-1.759770714E-2,-2.812729086E-2,7.723937988E-2,8.406393752E-2
5.722307833E0,-3.090501979E-2,-4.205032445E-2,3.682576418E-2,6.387086145E-2
5.732275833E0,-4.720581450E-2,-4.045885853E-2,-1.601435423E-2,6.420099452E-2
5.742243833E0,-4.106188919E-2,-3.713277041E-2,-1.766209960E-2,5.811085221E-2
5.752210833E0,-3.453731015E-3,1.158753689E-3,-4.101237059E-2,4.117384496E-2
5.762178833E0,1.001891166E-2,2.610565259E-2,2.305966437E-2,3.624405895E-2
5.772145833E0,-4.635087848E-3,1.152781307E-2,3.189246833E-2,3.422724134E-2
5.782113833E0,-3.601475537E-2,-1.088129374E-2,3.399044931E-2,5.070321294E-2
5.792081833E0,-6.451452300E-2,-3.348366930E-2,2.186507821E-2,7.590363254E-2
5.802048833E0,-5.583922841E-2,-3.162451054E-2,2.666096449E-2,6.949054701E-2
5.812016833E0,-2.248217873E-2,1.580356210E-3,5.416860580E-3,2.317947939E-2
5.821983833E0,7.662227936E-3,2.111467031E-2,3.778470755E-3,2.277753016E-2
5.831951833E0,4.197204486E-3,2.114978101E-2,2.519038975E-2,3.315849059E-2
5.841918833E0,-2.556241885E-2,-2.218752475E-2,-1.357840419E-2,3.647048906E-2
5.851886833E0,-5.466382843E-2,-5.089307782E-2,1.022911906E-2,7.538484188E-2
5.861854833E0,-5.620135378E-2,-5.914869765E-2,4.695898890E-3,8.172644656E-2
5.871821833E0,-2.589304235E-2,-2.889609008E-2,4.587608457E-2,6.008368164E-2
5.881789833E0,1.331348877E-2,1.080503326E-2,3.285258114E-2,3.705792513E-2
5.891756833E0,1.722757839E-2,4.927530857E-3,-2.342979312E-2,2.949618997E-2
5.901724833E0,-1.492337342E-2,-1.599702272E-2,6.489181459E-2,6.848035785E-2
5.911692833E0,-3.670735806E-2,-3.690807288E-2,-3.435531557E-2,6.236925274E-2
5.921659833E0,-3.754343681E-2,-4.438243160E-2,2.686795592E-2,6.404058821E-2
5.931627833E0,-3.417946056E-2,-2.888137154E-2,3.629659116E-2,5.761780694E-2
5.941594833E0,-1.761305608E-2,-2.694561426E-4,1.235165834E-2,2.151408411E-2
5.951562833E0,-7.728118747E-3,2.543209903E-3,9.963655472E-3,1.286336528E-2
5.961530833E0,-1.016765021E-2,4.615901671E-3,6.219683290E-3,1.278171034E-2
5.971497833E0,-2.116103690E-2,-1.547555158E-2,-3.212460279E-3,2.641215782E-2
5.981465833E0,-3.186242826E-2,-3.517968161E-2,2.623645663E-3,4.753638448E-2
5.991432833E0,-2.687124498E-2,-3.262242925E-2,3.376065373E-2,5.409314594E-2
6.001400833E0,-2.129296470E-2,-1.339935148E-3,4.274899364E-3,2.175914834E-2
6.011367833E0,-2.246723179E-2,-4.039558070E-3,-6.650038362E-3,2.377640729E-2
6.021335833E0,-2.661060534E-2,-1.714086601E-2,-2.640778005E-2,4.122262063E-2
6.031303833E0,-4.166060753E-2,-2.326809020E-2,-3.090545833E-2,5.685206765E-2
6.041270833E0,-3.744936973E-2,-2.272598022E-2,3.361622751E-2,5.521753545E-2
6.051238833E0,5.455145225E-2,3.602900796E-2,2.653560019E-1,2.732906110E-1
6.061205833E0,9.298001133E-2,6.836964710E-2,-1.217214882E-2,1.160510765E-1
6.071173833E0,3.470899902E-2,-1.030876910E-2,1.239118552E-1,1.290935056E-1
6.081141833E0,-7.330142632E-2,-7.484700073E-2,-9.224450469E-2,1.395858921E-1
6.091108833E0,-1.205203971E-1,-1.268311325E-1,-1.730612111E-1,2.460924319E-1
6.101076833E0,-9.964309629E-2,-7.235535596E-2,-3.908337414E-2,1.291957983E-1
6.111043833E0,-3.380713910E-3,-2.714843955E-3,2.393323839E-2,2.432281859E-2
6.121011833E0,6.435712326E-2,4.779165069E-2,7.557760119E-2,1.101719338E-1
6.130978833E0,5.922001541E-2,4.524108608E-2,8.394613624E-2,1.122529282E-1
6.140946833E0,-7.138061598E-3,8.624853222E-3,7.896080017E-3,1.369993051E-2
6.150914833E0,-5.864647664E-2,-3.457529878E-2,-1.224325097E-1,1.400877580E-1
6.160881833E0,-7.511088375E-2,-2.374390737E-2,-3.469796240E-2,8.607767765E-2
6.170849833E0,-1.792328741E-2,-7.723230841E-3,-1.318430185E-2,2.355245936E-2
6.180816833E0,-1.772042558E-2,7.834263984E-3,-9.664628863E-2,9.856923598E-2
6.190784833E0,-3.553901128E-3,-1.830553086E-3,3.681518072E-1,3.681735111E-1
6.200752833E0,-9.431244560E-2,-2.355758219E-2,1.127957135E-1,1.489049028E-1
6.210719833E0,5.493532196E-2,-5.777802807E-2,-3.060362506E-1,3.162504969E-1
6.220687833E0,-8.687171750E-3,-1.462233318E-2,4.078666806E-2,4.419085734E-2
6.230654833E0,8.560871892E-3,-6.319618600E-2,-8.981966436E-2,1.101572447E-1
6.240622833E0,-3.842231718E-1,-5.502622423E-1,2.720650971E-1,7.241791202E-1
6.250590833E0,-3.589348704E0,-5.393261803E0,2.294839185E-1,6.482542700E0
6.260557833E0,-3.571835124E0,-6.555424565E0,-2.716721642E-1,7.470301409E0
6.270525833E0,-8.919662891E-1,-1.516609573E0,6.420429897E-1,1.872946251E0
6.280492833E0,-8.057728487E-1,1.912564014E0,1.429559442E0,2.520081584E0
6.290460833E0,-1.908810832E0,1.907609375E0,2.096688741E-1,2.706749593E0
6.300427833E0,-1.522532803E0,1.670471159E0,-3.948835230E-1,2.294452664E0
6.310395833E0,-1.955547005E-1,1.511332461E0,2.130000329E-1,1.538745093E0
6.320363833E0,2.752337398E-1,6.007318995E-1,1.446659625E-2,6.609400192E-1
6.330330833E0,4.289968369E-1,-2.064053055E-1,-3.809537011E-1,6.097271182E-1
6.340298833E0,5.303661409E-1,-1.044591006E-1,-6.915829396E-1,8.777738373E-1
6.350265833E0,9.198097068E-1,-5.376240704E-2,-1.312641442E-1,9.306828508E-1
6.360233833E0,5.961649317E-1,1.850092288E-1,2.339384444E0,2.421231219E0
6.370201833E0,2.914485804E-1,-1.084435578E-1,5.840087897E-1,6.616407988E-1
6.380168833E0,3.309207213E-1,7.680621084E-2,1.851782207E0,1.882685598E0
6.390136833E0,1.255123112E-2,4.460180817E-1,2.412645378E0,2.453558107E0
6.400103833E0,-4.283947199E-1,8.465738424E-1,2.817853330E0,2.973298958E0
6.410071833E0,-1.110357163E0,1.162451907E0,2.043738111E0,2.600202479E0
6.420039833E0,-1.639260769E0,8.487324151E-1,1.476572810E0,2.363850639E0
6.430006833E0,-1.476147572E0,3.734362283E-1,1.654093108E0,2.248219358E0
6.439974833E0,-1.100884088E0,5.541308333E-1,1.451889959E0,1.904466122E0
6.449942000E0,-5.254679283E-1,1.070341596E-1,1.847593846E0,1.923844036E0
6.459910000E0,-2.301235308E-1,-8.200747727E-1,3.199261944E0,3.310703318E0
6.469877000E0,4.675480048E-1,-6.017119659E-1,3.115774230E0,3.207601515E0
6.479845000E0,8.617948025E-1,-2.332106414E-1,3.903828626E0,4.004616764E0
6.489813000E0,8.484758686E-1,4.702776678E-2,4.288821584E0,4.372197787E0
6.499780000E0,6.251191011E-1,-1.868022410E-1,4.130854375E0,4.182060119E0
6.509748000E0,1.516194348E-1,-1.116724707E0,4.056114095E0,4.209765324E0
6.519715000E0,2.938189320E-2,-1.727255225E0,3.332252187E0,3.753422244E0
6.529683000E0,1.246185643E-1,-1.155093113E0,2.007491221E0,2.319437623E0
6.539651000E0,-2.267908372E-1,-7.081206197E-1,1.539827989E0,1.709952962E0
6.549618000E0,-5.967857964E-1,-5.091270437E-1,1.405691108E0,1.609761201E0
6.559586000E0,-6.394849060E-1,-1.345076038E-1,1.691954999E0,1.813765409E0
6.569553000E0,-4.429408383E-1,5.398287265E-1,1.897198700E0,2.021626709E0
6.579521000E0,-3.140848698E-1,8.466529991E-1,1.567094141E0,1.808661011E0
6.589489000E0,-4.232833032E-1,7.868386873E-1,1.241624669E0,1.529678297E0
6.599456000E0,-4.606839218E-1,7.232026353E-1,1.115728269E0,1.407160722E0
6.609424000E0,-3.672161796E-1,7.112308998E-1,6.113755131E-1,1.007212556E0
6.619391000E0,-3.988576562E-1,4.240231953E-1,6.726613498E-1,8.895821443E-1
6.629359000E0,-3.481062363E-1,6.134707166E-1,1.432426332E0,1.596674503E0
6.639327000E0,-2.475145389E-1,1.053981964E0,1.789667235E0,2.091662076E0
6.649294000E0,-3.989846139E-1,1.154380338E0,1.871924111E0,2.235147101E0
6.659262000E0,-7.448686159E-1,1.416910307E0,1.528544033E0,2.213348353E0
6.669229000E0,-1.120389377E0,1.758911904E0,8.562007713E-1,2.254356494E0
6.679197000E0,-1.210416471E0,1.905384656E0,6.351888835E-2,2.258236783E0
6.689164000E0,-1.024395783E0,1.682243943E0,-1.222389668E-1,1.973391439E0
6.699132000E0,-6.618211967E-1,1.083743122E0,-2.273350668E-1,1.290033985E0
6.709100000E0,-3.147123492E-1,5.370150098E-1,-6.757796699E-1,9.187530385E-1
6.719067000E0,-2.598324296E-1,4.067269121E-1,-4.706844878E-1,6.741539584E-1
6.729035000E0,-2.743363018E-1,7.179354635E-1,-3.542313409E-1,8.462692120E-1
6.739002000E0,-4.973087610E-1,8.824864908E-1,-1.107536904E0,1.500911858E0
6.748970000E0,-7.931739262E-1,1.029543087E0,-1.767241409E0,2.193678655E0
6.758938000E0,-1.025497545E0,1.199569594E0,-1.530971212E0,2.198746296E0
6.768905000E0,-9.789735889E-1,1.136892119E0,-1.409994659E0,2.058882687E0
6.778873000E0,-7.229909661E-1,7.591697359E-1,-1.514555154E0,1.841991297E0
6.788840000E0,-4.654576617E-1,3.092104116E-1,-1.047157971E0,1.186929538E0
6.798808000E0,-2.787434945E-1,2.990880042E-1,-4.754955769E-1,6.270945811E-1
6.808776000E0,-2.739479005E-1,7.337928200E-1,-5.171990883E-1,9.386129404E-1
6.818743000E0,-5.574802646E-1,1.014578747E0,-7.001935494E-1,1.352932107E0
6.828711000E0,-8.712357169E-1,1.071829420E0,-8.902455997E-1,1.643291577E0
6.838678000E0,-9.310617962E-1,8.420858851E-1,-1.265607024E0,1.782623304E0
6.848646000E0,-7.992453825E-1,1.705331674E-1,-1.355051297E0,1.582415483E0
6.858614000E0,-4.015534419E-1,-4.245470327E-1,-1.282152890E0,1.409042719E0
6.868581000E0,1.421630618E-1,-5.283351105E-1,-1.425715483E0,1.527092978E0
6.878549000E0,3.583238071E-1,-3.774512190E-1,-1.394686648E0,1.488628973E0
6.888516000E0,2.087751272E-1,-1.393449962E-1,-1.220955346E0,1.246489486E0
6.898484000E0,-1.036769807E-1,4.922887802E-2,-1.366164515E0,1.370976980E0
6.908451000E0,-5.004962245E-1,1.942202380E-1,-1.693363593E0,1.776428504E0
6.918419000E0,-6.549220669E-1,4.052091211E-2,-1.887777082E0,1.998566278E0
6.928387000E0,-5.357353467E-1,-4.873209858E-1,-1.962996249E0,2.092330848E0
6.938354000E0,-3.220593756E-1,-8.234505165E-1,-2.069859377E0,2.250802265E0
6.948322000E0,-5.519216090E-2,-1.012282545E0,-2.002079623E0,2.244122310E0
6.958289000E0,2.040616867E-1,-9.035991785E-1,-1.857700759E0,2.075857595E0
6.968257000E0,5.588458818E-1,-7.336095098E-1,-1.375151101E0,1.655757284E0
6.978225000E0,7.266691571E-1,-5.573294064E-1,-1.215788162E0,1.522105445E0
6.988192000E0,5.648807931E-1,-4.563880455E-1,-1.346185749E0,1.529573937E0
6.998160000E0,2.821018428E-1,-5.362279746E-1,-1.580781303E0,1.692923926E0
7.008127000E0,1.977177501E-2,-5.193081790E-1,-1.653511895E0,1.733255173E0
7.018095000E0,-3.680793017E-2,-4.926548159E-1,-1.682636876E0,1.753662011E0
7.028063000E0,1.743853131E-1,-5.631289673E-1,-1.691327008E0,1.791120186E0
7.038030000E0,4.008128920E-1,-5.208699703E-1,-1.557475471E0,1.690469267E0
7.047998000E0,4.824283281E-1,-4.644238740E-1,-1.442018690E0,1.589919661E0
7.057965000E0,1.720965959E0,-1.091015596E0,-9.386283857E-1,2.243448709E0
7.067933000E0,2.207367471E0,-8.241764483E-1,6.475820571E-1,2.443583534E0
7.077900000E0,-4.996299595E-2,5.412957564E-1,-1.758041400E-1,5.713182060E-1
7.087868000E0,3.327551025E-1,-2.235975266E-3,-1.811501323E0,1.841811066E0
7.097836000E0,3.454292348E-1,-1.429117978E-1,-3.206328304E0,3.228046830E0
7.107803000E0,2.225193000E-1,-8.966208190E-2,-2.688039295E0,2.698723658E0
7.117771000E0,2.207052013E-1,-2.585483810E-1,-2.863147616E-1,4.444481904E-1
7.127738000E0,1.435520679E-1,6.900299191E-3,-7.684024894E-1,7.817270598E-1
7.137706000E0,-6.627652296E-1,6.948570880E-1,-1.975249674E0,2.196291282E0
7.147674000E0,-1.162541077E0,4.900987056E-1,-2.097599153E0,2.447778728E0
7.157641000E0,-1.629556437E0,-1.373909152E0,-1.512841920E0,2.613765715E0
7.167609000E0,-2.619726275E0,-2.620798362E0,-1.108236816E0,3.867782135E0
7.177576000E0,-3.229401125E0,-3.083750784E0,-3.790656352E-1,4.481321376E0
7.187544000E0,-2.952833672E0,-2.555053438E0,-6.082390666E-2,3.905281592E0
7.197512000E0,-2.446758619E0,-7.245062721E-1,-4.679813200E-1,2.594329122E0
7.207479000E0,-2.121748446E0,1.107233434E0,-1.138593221E0,2.650316371E0
7.217447000E0,-1.331759498E0,9.933972082E-1,-2.558418803E0,3.050561939E0
7.227414000E0,6.926523954E-2,1.298693494E0,-2.277911496E0,2.623029403E0
7.237382000E0,1.010978324E0,2.677460513E0,-1.748599316E0,3.353874108E0
7.247350000E0,1.208253440E0,2.440006254E0,-1.623736703E0,3.170177878E0
7.257317000E0,1.403346375E0,9.459856448E-1,-1.289992252E0,2.127991987E0
7.267285000E0,9.153041348E-1,2.055995044E-1,-8.066502964E-1,1.237229775E0
7.277252000E0,5.764866391E-1,-1.059067872E0,4.685373902E-2,1.206713253E0
7.287220000E0,8.490332544E-2,-1.718255190E0,-1.341330221E0,2.181461949E0
7.297188000E0,-1.505182944E-1,-2.189300159E0,-1.323048901E0,2.562449870E0
7.307155000E0,2.670014083E-2,-1.660332087E0,-1.819686840E0,2.463468233E0
7.317123000E0,4.392878634E-1,-9.677665231E-1,-2.482534223E0,2.700467004E0
7.327090000E0,6.603275254E-1,-5.634417933E-1,-2.233132934E0,2.395909388E0
7.337058000E0,7.285018207E-1,-9.201368585E-1,-2.353736435E0,2.630103029E0
7.347025000E0,5.932396428E-1,-1.354347292E0,-3.404841861E0,3.712026126E0
7.356993000E0,4.250864384E-1,-1.019308852E0,-4.695377904E0,4.823511446E0
7.366961000E0,7.798437363E-1,-4.201443717E-1,-5.312348033E0,5.385695792E0
7.376928000E0,8.113190058E-1,5.560702085E-3,-4.309168140E0,4.384883067E0
7.386896000E0,2.668464571E-2,5.279328221E-1,-2.526406467E0,2.581115025E0
7.396863000E0,-4.385850281E-1,3.646212584E-1,-1.128398015E0,1.264352629E0
7.406831000E0,-9.892135254E-1,-1.400435046E0,2.275210083E-2,1.714724285E0
7.416799000E0,-2.281213419E0,-3.230576123E0,3.673903243E0,5.397973859E0
7.426766000E0,-1.553756642E0,-4.013725875E0,1.201468915E0,4.468521305E0
7.436734000E0,8.883633810E-1,-2.321251059E0,4.331728452E-1,2.522902037E0
7.446700583E0,1.614767659E0,-1.400758982E-1,-1.856695622E-1,1.631431591E0
7.456668583E0,3.797611615E-1,9.599309617E-1,2.396083724E-1,1.059763258E0
7.466636583E0,-1.024532462E0,8.628739062E-1,5.240140182E-1,1.438335439E0
7.476603583E0,-1.543879525E0,9.124296436E-1,4.321028048E-1,1.844669259E0
7.486571583E0,-1.409790299E0,6.586148760E-1,6.536795336E-1,1.687773437E0
7.496538583E0,-1.200998214E0,-4.580837381E-1,6.267911124E-1,1.430071509E0
7.506506583E0,-7.364383927E-1,-1.313083491E0,-6.406501830E-2,1.506862332E0
7.516473583E0,-5.946977922E-1,-1.964522957E0,-1.073890856E0,2.316518397E0
7.526441583E0,-3.319666055E-1,-1.883452773E0,-1.794112288E0,2.622295765E0
7.536409583E0,-1.378650659E-1,-1.124652874E0,-2.031053161E0,2.325731671E0
7.546376583E0,-2.314249018E-1,-1.363018128E-1,-1.241362714E0,1.270085452E0
7.556344583E0,-3.808607304E-1,7.204111746E-1,-7.911966902E-1,1.135798996E0
7.566311583E0,-3.753865671E-1,7.219220951E-1,-8.350753659E-1,1.165949164E0
7.576279583E0,-2.747255802E-1,4.886822176E-1,-1.012772834E0,1.157580783E0
7.586247583E0,-5.232953954E-1,2.841597703E-1,-1.001635058E0,1.165271486E0
7.596214583E0,-1.364626113E0,3.013994086E-1,-1.029138021E0,1.735560745E0
7.606182583E0,-1.679860326E0,-2.339313108E-1,-1.162862674E0,2.056429958E0
7.616149583E0,-1.628920552E0,-1.231046179E0,-7.687316877E-1,2.181697795E0
7.626117583E0,-1.766368712E0,-1.387441656E0,-7.307002276E-1,2.361985520E0
7.636085583E0,-1.802177645E0,-1.839548370E0,-8.653469861E-1,2.716727420E0
7.646052583E0,-1.243589918E0,-2.143491025E0,-1.362847974E0,2.828148557E0
7.656020583E0,-5.049509257E-1,-1.817128683E0,-2.103993083E0,2.825547555E0
7.665987583E0,6.863081664E-2,-1.012339263E0,-2.056226594E0,2.292947618E0
7.675955583E0,4.470073575E-1,-1.005764362E0,-1.338155183E0,1.732638688E0
7.685923583E0,5.290613347E-1,-6.496437854E-1,-1.434625470E0,1.661352817E0
7.695890583E0,9.283305618E-1,4.750950426E-1,-1.408409479E0,1.752464034E0
7.705858583E0,1.314295619E0,7.375707060E-1,-9.968941355E-1,1.806981305E0
7.715825583E0,1.596291627E0,2.798243523E-1,-1.217890821E0,2.027241149E0
7.725793583E0,2.029980782E0,-2.088645896E-1,-1.192081211E0,2.363367090E0
7.735760583E0,2.450538844E0,-9.325689161E-1,-7.597608894E-1,2.729846519E0
7.745728583E0,2.439795170E0,-1.836402276E0,-2.366017342E-1,3.062834336E0
7.755696583E0,1.357531686E0,-2.627184106E0,-4.066656625E-1,2.985023545E0
7.765663583E0,1.243501625E0,-3.436630541E0,-4.114925390E-1,3.677778117E0
7.775631583E0,1.075594150E0,-4.225188383E0,-3.620964307E-1,4.374955253E0
7.785598583E0,1.120608355E0,-4.805845548E0,-5.023278648E-1,4.960266908E0
7.795566583E0,1.694569874E0,-4.707352417E0,-2.973139590E-1,5.011898784E0
7.805534583E0,1.795875224E0,-4.417266201E0,-3.080149484E-1,4.778313690E0
7.815501583E0,1.737035277E0,-4.495937271E0,-4.912608397E-1,4.844799347E0
7.825469583E0,1.566876624E0,-4.989854794E0,-3.943274528E-1,5.244925868E0
7.835436583E0,1.033869588E0,-5.712809799E0,1.889217836E-1,5.808680880E0
7.845404583E0,2.030042177E-1,-4.816827204E0,1.943088818E0,5.197944707E0
7.855371583E0,-8.702937305E-2,-4.443747948E0,3.564529905E0,5.697397948E0
7.865339583E0,-1.191077828E-1,-4.749103290E0,5.369985207E0,7.169721741E0
7.875307583E0,-6.297802091E-2,-5.169647319E0,6.135731306E0,8.023491652E0
7.885274583E0,9.677024961E-2,-4.926323626E0,6.456738183E0,8.122037732E0
7.895242583E0,4.062487561E-1,-4.309584754E0,5.935087609E0,7.345939269E0
7.905209583E0,5.090124017E-1,-4.523221841E0,5.123820351E0,6.853624183E0
7.915177583E0,3.593347907E-1,-5.090381294E0,4.492885902E0,6.799053386E0
7.925145583E0,-3.253092581E-1,-5.339426488E0,4.601142714E0,7.055906435E0
7.935112583E0,-8.198930705E-1,-5.394242966E0,5.271993474E0,7.587094108E0
7.945080583E0,-1.433982861E0,-4.987195480E0,5.678681356E0,7.692583931E0
7.955047583E0,-1.885689041E0,-4.521711213E0,6.330827165E0,8.005065149E0
7.965015583E0,-2.306102092E0,-4.406728056E0,6.697827655E0,8.342556821E0
7.974983583E0,-2.463269987E0,-4.204473452E0,7.155475191E0,8.657142787E0
7.984950583E0,-2.078185812E0,-3.656920590E0,7.232498224E0,8.366657339E0
7.994918583E0,-1.475664738E0,-2.977620896E0,6.864928215E0,7.626994953E0
8.004885583E0,-1.156965757E0,-2.080291979E0,6.151081417E0,6.595603617E0
8.014853583E0,-1.154421633E0,-1.029012891E0,5.430904423E0,5.646793753E0
8.024820583E0,-1.387561816E0,7.221954525E-2,5.094560884E0,5.280633869E0
8.034788583E0,-1.814430778E0,9.161340009E-1,5.088538252E0,5.479478269E0
8.044756583E0,-2.077439123E0,1.345687858E0,5.348394363E0,5.893381999E0
8.054723583E0,-2.280362064E0,1.659684947E0,5.500904950E0,6.181792663E0
8.064691583E0,-2.304189468E0,2.311973135E0,5.500307364E0,6.395927610E0
8.074658583E0,-2.333023843E0,2.798075123E0,5.284147496E0,6.418289445E0
8.084626583E0,-2.443856061E0,2.983633003E0,5.273247702E0,6.533118678E0
8.094594583E0,-3.320312757E0,3.560288334E0,5.495360620E0,7.341601881E0
8.104561583E0,-3.520669940E0,4.673612813E0,6.369043397E0,8.648843121E0
8.114529583E0,-2.949237342E0,5.068498675E0,7.085115645E0,9.197094292E0
8.124496583E0,-2.653962892E0,4.597399912E0,6.405791978E0,8.319481705E0
8.134464583E0,-2.288219553E0,4.119744666E0,5.209689052E0,7.024891803E0
8.144431583E0,-1.816943911E0,3.878851368E0,4.307557232E0,6.074687022E0
8.154399583E0,-2.074744141E0,4.055109251E0,3.990694277E0,6.055915712E0
8.164367583E0,-3.155218377E0,4.786462905E0,4.561202431E0,7.325994661E0
8.174334583E0,-4.112546158E0,6.191678635E0,5.627149844E0,9.322807281E0
8.184302583E0,-4.389824048E0,6.682992100E0,5.834500297E0,9.898198437E0
8.194269583E0,-3.858358923E0,6.271221233E0,5.587161906E0,9.242917694E0
8.204237583E0,-4.607875491E0,6.290612354E0,5.124417937E0,9.330808085E0
8.214205583E0,-5.534562108E0,5.790343879E0,4.910980532E0,9.395594167E0
8.224172583E0,-5.355439673E0,5.599252194E0,4.554702666E0,8.987640157E0
8.234140583E0,-4.976296270E0,6.030975514E0,3.876144691E0,8.727009103E0
8.244107583E0,-4.928908095E0,6.474493838E0,2.758872173E0,8.592123203E0
8.254075583E0,-5.229191270E0,6.521553399E0,1.323696188E0,8.463289649E0
8.264043583E0,-5.266527497E0,6.291036277E0,-1.232797712E-1,8.205403538E0
8.274010583E0,-4.730324373E0,5.293598936E0,-1.673388920E0,7.293722564E0
8.283978583E0,-4.149229251E0,3.884357398E0,-1.043343832E0,5.778659198E0
8.293945583E0,-5.981215709E0,4.402374512E0,8.059275806E-2,7.427135241E0
8.303913583E0,-6.677020338E0,4.502515974E0,-1.715180140E0,8.233899052E0
8.313880583E0,-4.895544468E0,4.191253189E0,-2.026535602E0,6.755723905E0
8.323848583E0,-5.224891228E0,3.538769996E0,-1.819160006E0,6.567474747E0
8.333816583E0,-5.340438641E0,2.778719085E0,-1.428447887E0,6.187247207E0
8.343783583E0,-4.526055987E0,2.250712295E0,-1.226303794E0,5.201414195E0
8.353751583E0,-3.488247714E0,2.527843128E0,-1.040110322E0,4.431669265E0
8.363718583E0,-2.724544632E0,2.500101598E0,6.154404974E-1,3.748655553E0
8.373686583E0,-1.935657592E0,2.406684726E0,-1.967295706E-1,3.094770462E0
8.383654583E0,-1.088559766E0,3.672604576E0,-2.261722895E0,4.448412885E0
8.393621583E0,-4.444644034E-2,2.618158344E0,-1.705070888E0,3.124739242E0
8.403589583E0,-6.876103413E-1,1.769882011E0,-2.015691941E0,2.769170330E0
8.413556583E0,-7.006689280E-1,8.065430000E-1,-2.427045316E0,2.651791380E0
8.423524583E0,-9.509402829E-1,-7.760135177E-1,-2.462114577E0,2.751089346E0
8.433491583E0,-1.316879504E0,-1.581105239E0,-1.880213124E0,2.787340452E0
8.443459583E0,-1.343180864E0,-1.461089968E0,-1.425011478E0,2.443271668E0
8.453427583E0,-1.249841176E0,-1.216996781E0,-2.359107102E0,2.934036546E0
8.463394583E0,-9.370958304E-1,-9.606609866E-1,-4.721207979E0,4.908240306E0
8.473362583E0,-2.878075558E-1,-1.297569659E0,-7.402039411E0,7.520419380E0
8.483329583E0,-2.433102447E-1,-9.414277402E-1,-7.034147220E0,7.101036064E0
8.493297583E0,-9.504631501E-1,-3.734821290E-1,-5.517437367E0,5.611148207E0
8.503265583E0,-1.428083020E0,-2.546114507E-1,-4.853223490E0,5.065375243E0
8.513232583E0,-9.513595283E-1,-2.459983559E-1,-3.779522084E0,3.905174430E0
8.523200583E0,-1.170402074E0,-9.913097522E-1,-2.872981464E0,3.256771182E0
8.533167583E0,-1.376191905E0,-1.875820695E0,-1.298832073E0,2.664502241E0
8.543135583E0,-1.114675185E0,-2.144992005E0,7.340477586E-2,2.418445726E0
8.553103583E0,-9.037959373E-1,-2.117606571E0,1.102765576E0,2.552880060E0
8.563070583E0,-8.287691438E-1,-2.136863206E0,1.480947697E0,2.728781548E0
8.573038583E0,-6.942247117E-1,-2.255829779E0,-1.172343349E-1,2.363146172E0
8.583005583E0,-1.390651485E0,-1.608937985E0,-6.694640923E-1,2.229523528E0
8.592973583E0,-1.684401566E0,-3.527666134E-1,-3.338970637E-1,1.753037412E0
8.602940583E0,-2.189160118E0,1.025672961E0,-1.589459156E0,2.893234773E0
8.612908583E0,-1.668393059E0,2.095485384E0,-2.048859687E0,3.372301945E0
8.622876583E0,-1.150297008E0,2.574939526E0,-2.270220069E0,3.620413779E0
8.632843583E0,-8.000218928E-1,2.074616672E0,-2.310053056E0,3.206308545E0
8.642811583E0,-1.000035260E0,8.548217055E-1,-2.167833568E0,2.535802250E0
8.652778583E0,-1.341610887E0,-7.769867867E-2,-2.092498627E0,2.486866977E0
8.662746583E0,-1.267400365E0,-4.887687564E-2,-1.307505832E0,1.821610314E0
8.672714583E0,-1.279339210E0,-1.000107765E-1,-1.534336284E0,2.000224688E0
8.682681583E0,-1.379866295E0,2.359547397E-1,-1.997942718E0,2.439565686E0
8.692649583E0,-1.014408885E0,1.687409374E0,-1.580173193E0,2.524544137E0
8.702616583E0,-8.759696227E-1,3.029239531E0,-1.781307471E0,3.621694524E0
8.712584583E0,-8.856637216E-1,3.910626307E0,-2.141111208E0,4.545520382E0
8.722551583E0,-6.656177938E-1,4.591902067E0,-1.762667132E0,4.963426947E0
8.732519583E0,-7.675528890E-1,4.568429005E0,-1.246931602E0,4.797345039E0
8.742487583E0,-6.694506437E-1,3.875962258E0,-9.306504446E-1,4.041949757E0
8.752454583E0,-2.644578695E-1,2.466361994E0,-8.170466459E-1,2.611598107E0
8.762422583E0,3.872108066E-1,1.409753461E0,-4.259953880E-1,1.522763639E0
8.772389583E0,1.369693310E0,-5.934471459E-1,-1.878125668E-2,1.492846949E0
8.782357583E0,2.168962081E0,-2.962310547E0,8.585525215E-2,3.672472111E0
8.792325583E0,2.944939638E0,-4.134157175E0,-3.411850333E-2,5.075932337E0
8.802292583E0,3.113516035E0,-4.350530759E0,1.530397600E-1,5.352057656E0
8.812260583E0,2.790144544E0,-3.833554450E0,1.003290405E0,4.846404640E0
8.822227583E0,2.115686930E0,-2.460515948E0,1.646565987E0,3.638880249E0
8.832195583E0,1.292286699E0,-8.324539129E-1,2.174074886E0,2.662627658E0
8.842162583E0,3.692458212E-1,-4.445474339E-1,2.716716964E0,2.777501748E0
8.852130583E0,-1.221873944E0,6.525488283E-1,3.016849866E0,3.319665498E0
8.862098583E0,-1.788479666E0,1.854122701E0,2.508839677E0,3.595929230E0
8.872065583E0,-1.508307404E0,1.651835791E0,1.916808507E0,2.945794894E0
8.882033583E0,-1.330900542E0,1.759063932E0,7.660858226E-1,2.335056671E0
8.892000583E0,-6.636069363E-1,2.031298744E0,-1.062696362E-1,2.139589210E0
8.901968583E0,-7.909820974E-2,2.284926255E0,-3.315371275E-1,2.310208082E0
8.911936583E0,-1.822109342E-2,2.650135304E0,6.402198279E-1,2.726431838E0
8.921903583E0,-5.138498032E-1,3.006827738E0,2.295701065E0,3.817760868E0
8.931871583E0,-1.298975329E0,2.973612045E0,3.933527804E0,5.099249600E0
8.941838583E0,-1.840748511E0,2.839738581E0,5.207661822E0,6.210653101E0
8.951806583E0,-2.214883774E0,2.307751592E0,5.422611317E0,6.295724028E0
8.961773583E0,-2.285245659E0,1.397844145E0,4.668649696E0,5.382620733E0
8.971741583E0,-1.722617213E0,8.639617807E-1,3.704437988E0,4.175727581E0
8.981709583E0,-1.099489381E0,8.273634732E-1,2.995315740E0,3.296259031E0
8.991676583E0,-7.371537995E-1,7.993602803E-1,2.565996795E0,2.786882153E0
9.001644583E0,-2.723288065E-1,4.174520212E-1,2.264507339E0,2.318711422E0
9.011611583E0,-4.729228020E-3,-5.861512095E-2,2.248423403E0,2.249192277E0
9.021579583E0,1.377405202E-1,-8.185216060E-1,2.352895020E0,2.495008025E0
9.031547583E0,5.298659116E-2,-1.833958139E0,2.148133714E0,2.825011237E0
9.041514583E0,2.284469149E-1,-2.925785914E0,1.734284163E0,3.408834517E0
9.051482583E0,6.587443918E-1,-3.668495153E0,7.044199169E-1,3.793152816E0
9.061449583E0,7.455164874E-1,-4.242310784E0,2.427810717E-1,4.314155569E0
9.071417583E0,6.111816779E-1,-3.966784135E0,3.765770602E-1,4.031219382E0
9.081384583E0,4.464866629E-1,-3.507280986E0,7.066763574E-1,3.605518233E0
9.091352583E0,1.340740237E-1,-3.681578298E0,5.437033474E-1,3.723923729E0
9.101320583E0,-2.669844514E-1,-3.910393295E0,-2.057091397E-1,3.924891422E0
9.111287583E0,-2.906440401E-1,-3.635747822E0,-1.284285370E0,3.866849505E0
9.121255583E0,-2.887594825E-1,-3.378131195E0,-2.055727826E0,3.964992976E0
9.131222583E0,-3.810633364E-1,-3.829272534E0,-2.626911918E0,4.659313643E0
9.141190583E0,-6.425405878E-1,-4.292159759E0,-3.190433233E0,5.386497751E0
9.151158583E0,-7.523650387E-1,-4.122303407E0,-3.404287544E0,5.398945473E0
9.161125583E0,-6.118798354E-1,-4.019980057E0,-3.219465244E0,5.186481760E0
9.171093583E0,-7.608320993E-1,-4.008675635E0,-2.858376873E0,4.981833415E0
9.181060583E0,-1.134904212E0,-3.944472038E0,-2.344546366E0,4.726919175E0
9.191028583E0,-1.014501564E0,-3.997970552E0,-2.162105636E0,4.657003623E0
9.200995583E0,-7.492098811E-1,-4.263720657E0,-2.526975401E0,5.012607501E0
9.210963583E0,-5.646018809E-1,-4.737233443E0,-2.796960644E0,5.530202963E0
9.220931583E0,-5.124897408E-1,-5.375663438E0,-3.128731660E0,6.240942631E0
9.230898583E0,-2.874856666E-1,-5.850983598E0,-3.657502972E0,6.906083193E0
9.240866583E0,6.503653318E-2,-6.343758282E0,-4.019036316E0,7.510003449E0
9.250833583E0,-3.434940988E-1,-6.797736690E0,-4.203245244E0,7.999655173E0
9.260801583E0,-1.201236196E0,-5.590229940E0,-3.588252643E0,6.750495997E0
9.270768583E0,-1.207943830E0,-3.675354522E0,-2.865401718E0,4.814341716E0
9.280736583E0,-1.117549384E0,-2.795840317E0,-3.005215076E0,4.254051875E0
9.290704583E0,-8.637998128E-1,-2.599468596E0,-3.349995562E0,4.327338370E0
9.300671583E0,-1.622049782E-1,-3.040625814E0,-3.769750217E0,4.845898523E0
9.310639583E0,2.242106071E-1,-3.988147230E0,-4.802939774E0,6.246904770E0
9.320606583E0,6.623085621E-1,-4.852752789E0,-5.566735827E0,7.414607881E0
9.330574583E0,3.810764927E-1,-5.493998803E0,-5.919022969E0,8.084805196E0
9.340542583E0,-1.169163634E0,-5.282540097E0,-5.933020034E0,8.029501865E0
9.350509583E0,-1.647108609E0,-4.406212040E0,-5.306104960E0,7.091009883E0
9.360477583E0,-2.644501512E0,-2.128488824E0,-4.707002461E0,5.803423566E0
9.370444583E0,-3.347935004E0,1.838303205E0,-3.127188287E0,4.936327992E0
9.380412583E0,-2.968125603E0,3.861364392E0,-1.597440020E0,5.125594520E0
9.390380583E0,-2.503442697E0,3.529667051E0,-1.241861189E0,4.501998894E0
9.400347583E0,-1.815442346E0,1.930330194E0,-1.484896030E0,3.037584861E0
9.410315583E0,-8.670222133E-1,-4.589789468E-1,-1.885918544E0,2.125812303E0
9.420282583E0,-1.160497475E0,-2.169837994E0,-2.441610146E0,3.466469589E0
9.430250583E0,-1.625729434E0,-2.499124528E0,-2.392713389E0,3.822786545E0
9.440217583E0,-1.034360754E0,-2.449304497E0,-3.044503103E0,4.042028430E0
9.450185708E0,-1.232169136E0,-1.757135081E0,-3.584067791E0,4.177476081E0
9.460153708E0,-2.331878373E0,3.260249573E-1,-2.822788380E0,3.675878569E0
9.470120708E0,-3.122075189E0,2.766611840E0,-1.734129211E0,4.517598774E0
9.480088708E0,-3.444706423E0,4.550781523E0,-1.307328662E0,5.855315793E0
9.490055708E0,-3.637514266E0,4.958326022E0,-6.093184261E-1,6.179625872E0
9.500023708E0,-4.465402819E0,5.192310542E0,9.872802166E-1,6.919149755E0
9.509991708E0,-5.501007276E0,5.656846683E0,2.514864063E0,8.281638528E0
9.519958708E0,-6.657035725E0,6.226406418E0,3.957395554E0,9.937064007E0
9.529926708E0,-7.845502186E0,6.753722359E0,5.480192943E0,1.171312021E1
9.539893708E0,-9.157846005E0,7.245221180E0,7.625737510E0,1.394672886E1
9.549861708E0,-1.055674908E1,6.473970512E0,1.000243538E1,1.591872981E1
9.559828708E0,-1.087218648E1,7.035659310E0,1.165493219E1,1.742246783E1
9.569796708E0,-9.253445642E0,8.306014273E0,1.222113914E1,1.743480344E1
9.579764708E0,-7.791607815E0,8.788474469E0,1.171933343E1,1.659184172E1
9.589731708E0,-6.575645406E0,8.218238795E0,1.058251776E1,1.492542273E1
9.599699708E0,-5.059126757E0,6.807937742E0,9.145613630E0,1.247337278E1
9.609666708E0,-4.081679292E0,4.302069620E0,8.058663018E0,1.000549641E1
9.619634708E0,-3.789417912E0,1.494468799E0,6.843399351E0,7.963996470E0
9.629602708E0,-3.180141549E0,-2.699811494E-1,5.702360240E0,6.534761082E0
9.639569708E0,-1.940903714E0,-1.297005987E0,4.447886900E0,5.023248912E0
9.649537708E0,-5.864207661E-1,-1.557872497E0,2.947130005E0,3.384735041E0
9.659504708E0,4.264082015E-1,-2.242278564E0,1.698545980E0,2.845117846E0
9.669472708E0,5.520286131E-1,-3.365410577E0,5.532424951E-1,3.454967612E0
9.679439708E0,5.578986329E-1,-3.647352791E0,-7.370532274E-2,3.690510228E0
9.689407708E0,7.000806981E-1,-3.463615149E0,-4.236600101E-1,3.558964834E0
9.699375708E0,4.269549161E-1,-3.140193956E0,-8.753030401E-1,3.287744515E0
9.709342708E0,2.182999492E-1,-3.027518696E0,-1.541461117E0,3.404354079E0
9.719310708E0,1.410120374E-1,-2.960003235E0,-2.376427724E0,3.798540809E0
9.729277708E0,3.076015502E-2,-2.653110952E0,-3.398219304E0,4.311361543E0
9.739245708E0,1.277979147E-1,-2.227802320E0,-3.983094651E0,4.565575373E0
9.749212708E0,2.375215012E-1,-1.689308257E0,-4.072900282E0,4.415732732E0
9.759180708E0,9.419221222E-2,-1.197856798E0,-4.083076776E0,4.256201245E0
9.769148708E0,-1.708430699E-1,-1.033886545E0,-3.955246117E0,4.091708762E0
9.779115708E0,-4.048577034E-1,-9.577888343E-1,-3.668223842E0,3.812759548E0
9.789083708E0,-5.491418427E-1,-7.733498186E-1,-3.794187486E0,3.910944308E0
9.799050708E0,-6.741930279E-1,-5.361966920E-1,-4.062586963E0,4.152909337E0
9.809018708E0,-6.896798171E-1,-2.306697339E-1,-3.614176859E0,3.686616490E0
9.818986708E0,-7.546187018E-1,-2.532662988E-1,-3.665421857E0,3.750854648E0
9.828953708E0,-7.432616548E-1,-3.265272331E-1,-3.054914655E0,3.160943130E0
9.838921708E0,-5.320879997E-1,-6.401069766E-1,-2.538597912E0,2.671578922E0
9.848888708E0,-1.567746690E-1,-7.177846053E-1,-2.240655377E0,2.358035105E0
9.858856708E0,3.390430520E-1,-7.725215605E-1,-1.912811351E0,2.090594895E0
9.868823708E0,5.106453829E-1,-9.431713799E-1,-1.598860309E0,1.925275369E0
9.878791708E0,1.152033046E-1,-1.521765355E0,-3.322101420E-1,1.561859525E0
9.888759708E0,-3.532971020E-1,-2.454229022E0,8.854415274E-1,2.632881621E0
9.898726708E0,-3.298450895E-1,-3.267786049E0,9.148465902E-1,3.409423372E0
9.908694708E0,2.306713419E-1,-3.609468388E0,4.286482698E-1,3.642143689E0
9.918661708E0,1.040367014E0,-3.228200399E0,-3.923136717E-1,3.414315650E0
9.928629708E0,1.672554961E0,-2.600853217E0,-1.502563099E0,3.437960648E0
9.938596708E0,1.753978023E0,-1.871469782E0,-2.806743035E0,3.802189437E0
9.948564708E0,1.298663965E0,-6.275293234E-1,-3.667181284E0,3.940626817E0
9.958532708E0,9.470749079E-1,8.664579570E-1,-2.409962676E0,2.730498191E0
9.968499708E0,7.398963629E-1,1.962173253E0,-1.718637013E-1,2.104069304E0
9.978467708E0,4.656065465E-1,2.352446539E0,1.000553908E0,2.598442283E0
9.988434708E0,2.139091288E-1,1.685265492E0,1.440900702E0,2.227570813E0
9.998402708E0,3.547154173E-1,-5.651684761E-2,1.481884421E0,1.524794615E0
1.000837071E1,2.351438040E-1,-1.385415011E0,6.989592022E-1,1.569462114E0
1.001833771E1,6.313012891E-1,-1.550675451E0,-2.663634771E-1,1.695312707E0
1.002830571E1,1.393729605E0,-1.060695444E0,-1.128465258E0,2.083504470E0
1.003827271E1,1.435211215E0,-7.347371453E-1,-1.559619060E0,2.243230152E0
1.004824071E1,8.402834809E-1,-8.249865800E-1,-1.350981050E0,1.792157633E0
1.005820771E1,2.376328906E-1,-1.115926489E-1,-7.101893646E-1,7.571599854E-1
1.006817571E1,-4.392264676E-1,8.899684417E-1,3.582097864E-1,1.055119883E0
1.007814371E1,-1.007665876E0,9.829388782E-1,1.056293660E0,1.759919218E0
1.008811071E1,-1.003156357E0,1.053477641E0,1.156926581E0,1.858659983E0
1.009807871E1,-5.737100887E-1,1.246310043E0,5.315668666E-1,1.471392307E0
1.010804571E1,-1.984654628E-2,1.844612936E0,-5.883246195E-1,1.936263574E0
1.011801371E1,5.915806416E-1,2.328072420E0,-1.370149392E0,2.765356796E0
1.012798071E1,1.216880568E0,1.936829374E0,-1.642432006E0,2.815970389E0
1.013794871E1,1.368324769E0,1.468689594E0,-1.914392438E0,2.773852953E0
1.014791671E1,1.329957679E0,9.259410971E-1,-1.686911775E0,2.339193382E0
1.015788371E1,1.189684291E0,3.119477856E-1,-8.597991478E-1,1.500638100E0
1.016785171E1,7.864317942E-1,-1.232136977E-1,2.401159108E-2,7.963875556E-1
1.017781871E1,2.843720242E-1,-8.796188700E-1,1.208253440E0,1.521339272E0
1.018778671E1,-3.305049478E-1,-1.399733965E0,1.952039736E0,2.424654166E0
1.019775371E1,-4.700755003E-1,-1.637251373E0,1.735975177E0,2.432112837E0
1.020772171E1,-1.037870546E-1,-1.352478522E0,9.367251170E-1,1.648461055E0
1.021768971E1,4.960045396E-1,-1.100576379E0,-3.444542116E-1,1.255363522E0
1.022765671E1,1.058363867E0,5.573279446E-1,-1.288936830E0,1.758438701E0
1.023762471E1,1.768541683E0,1.834067482E0,-1.790980520E0,3.114346551E0
1.024759171E1,1.886718736E0,2.031791080E0,-1.717956982E0,3.261787665E0
1.025755971E1,1.291284340E0,2.057912931E0,-1.112742680E0,2.672193322E0
1.026752771E1,8.436529389E-1,1.735840107E0,-2.663371646E-1,1.948288131E0
1.027749471E1,5.748210597E-1,1.164489954E0,3.995373219E-1,1.358707539E0
1.028746271E1,1.981706169E-1,6.895498627E-1,1.035554171E0,1.259810719E0
1.029742971E1,-3.721603659E-1,4.918940932E-1,1.895876060E0,1.993692346E0
1.030739771E1,-7.714591214E-1,3.094638884E-2,2.377370880E0,2.499599799E0
1.031736471E1,-8.127045035E-1,-6.974845344E-1,1.881161542E0,2.164657486E0
1.032733271E1,-1.025567127E0,-1.177940304E0,1.026208566E0,1.868805852E0
1.033730071E1,-8.390383163E-1,-1.397973953E0,2.155459106E-1,1.644620476E0
1.034726771E1,-3.622984520E-1,-1.078950452E0,-5.364159626E-1,1.258227456E0
1.035723571E1,-2.508847278E-1,3.561468887E-1,-8.734541506E-1,9.760665480E-1
1.036720271E1,-7.394008845E-2,4.479528522E-1,-7.672365546E-1,8.915048094E-1
1.037717071E1,-3.300805861E-1,3.247023171E-1,-7.732393062E-1,9.012678918E-1
1.038713771E1,-4.436712286E-1,4.344223952E-1,-8.720297688E-1,1.070515247E0
1.039710571E1,-4.958024086E-1,3.794199765E-1,-9.157014531E-1,1.108281868E0
1.040707371E1,-6.203468961E-1,4.790746576E-1,-7.892752951E-1,1.112339108E0
1.041704071E1,-7.339170733E-1,3.505768311E-1,-4.247247881E-1,9.175671804E-1
1.042700871E1,-8.700949252E-1,5.970825791E-2,4.813182342E-1,9.961413040E-1
1.043697571E1,-1.262871404E0,-3.556773573E-1,1.471538358E0,1.971490731E0
1.044694408E1,-1.761778940E0,-9.647864896E-1,2.690973428E0,3.357977962E0
1.045691108E1,-2.643607765E0,-1.670484023E0,4.744927209E0,5.682738170E0
1.046687908E1,-3.803338963E0,-2.248836801E0,5.964549390E0,7.422836631E0
1.047684708E1,-3.655217004E0,-1.825686668E0,4.048754790E0,5.752056893E0
1.048681408E1,-2.956525311E0,-2.015379115E0,3.112417343E0,4.742355597E0
1.049678208E1,-2.068339978E0,-2.709165870E0,1.691152761E0,3.804945156E0
1.050674908E1,-1.446950816E0,-2.122672598E0,1.825752157E-1,2.575410517E0
1.051671708E1,-1.173599039E0,-1.835367903E0,-9.769691634E-1,2.387546605E0
1.052668408E1,-1.242876119E0,-1.046248729E0,-2.029952130E0,2.600015981E0
1.053665208E1,-1.169546626E0,-3.107958841E-1,-2.221715076E0,2.529911317E0
1.054662008E1,-9.888784799E-1,-2.277619135E-1,-1.641999897E0,1.930264178E0
1.055658708E1,-9.800521810E-1,-7.601362807E-1,-8.322996926E-1,1.493664025E0
1.056655508E1,-1.085895555E0,-1.203676824E0,-3.030798984E-1,1.649201164E0
1.057652208E1,-1.061650587E0,-1.290902663E0,2.538229537E-1,1.690549540E0
1.058649008E1,-9.279990978E-1,-1.283049268E0,7.892425507E-1,1.769265823E0
1.059645708E1,-8.128942457E-1,-1.433691085E0,1.140822179E0,2.004430699E0
1.060642508E1,-7.665437327E-1,-1.444814828E0,1.513195676E0,2.228192168E0
1.061639308E1,-6.951965920E-1,-1.445206591E0,1.759120211E0,2.380425237E0
1.062636008E1,-6.600608924E-1,-1.650597058E0,1.568329657E0,2.370613622E0
1.063632808E1,-8.162341753E-1,-1.603174970E0,1.373264204E0,2.263241654E0
1.064629508E1,-1.051639569E0,-1.406538370E0,1.650247979E0,2.409899243E0
1.065626308E1,-1.161824574E0,-1.372480677E0,1.979251508E0,2.674130902E0
1.066623008E1,-1.357563846E0,-1.387322665E0,1.655517490E0,2.551153059E0
1.067619808E1,-1.366210708E0,-1.655033925E0,9.728860527E-1,2.356305639E0
1.068616608E1,-1.203157080E0,-2.088880954E0,5.946828818E-1,2.482872999E0
1.069613308E1,-6.772816003E-1,-2.164908791E0,1.750632977E-1,2.275123645E0
1.070610108E1,-2.629944576E-1,-1.763737172E0,-8.405787653E-1,1.971422725E0
1.071606808E1,4.666019619E-2,-1.173239143E0,-1.526704499E0,1.926004643E0
1.072603608E1,4.876256257E-2,-6.954894644E-1,-1.514675606E0,1.667430831E0
1.073600308E1,-1.122375968E-1,-2.531236267E-1,-1.289044418E0,1.318447709E0
1.074597108E1,-2.333668352E-1,-6.159632385E-2,-1.236893687E0,1.260222274E0
1.075593908E1,-4.163925058E-1,-2.109728032E-1,-1.111216557E0,1.205277760E0
1.076590608E1,-5.039908129E-1,-8.250438827E-1,-8.385737550E-1,1.279808615E0
1.077587408E1,-4.604009897E-1,-1.114600925E0,-2.889781684E-1,1.240085754E0
1.078584108E1,-4.342034170E-1,-8.419698179E-1,3.915237129E-2,9.481448675E-1
1.079580908E1,-4.183770508E-1,-5.910424054E-1,1.090692830E-1,7.323022532E-1
1.080577608E1,-3.999934047E-1,-4.198955727E-1,2.573651969E-2,5.804906409E-1
1.081574408E1,-3.097258437E-1,-3.163788056E-1,-4.242435622E-1,6.131951133E-1
1.082571208E1,-1.338345802E-1,7.067588031E-2,-4.609699237E-1,4.851804257E-1
1.083567908E1,4.724257886E-2,2.860545605E-1,-5.553439844E-1,6.264710798E-1
1.084564708E1,-4.401228458E-2,1.996227729E-1,-2.421127349E-1,3.168673367E-1
1.085561408E1,-3.046622280E-1,-2.933080316E-2,5.589979094E-1,6.373052894E-1
1.086558208E1,-8.092394435E-1,-2.838910908E-1,1.121697106E0,1.411972743E0
1.087555008E1,-1.365471035E0,-6.102569407E-1,1.521698112E0,2.133656445E0
1.088551708E1,-1.739396529E0,-9.473056537E-1,1.968440591E0,2.792426659E0
1.089548508E1,-1.815230092E0,-1.003671643E0,1.861060569E0,2.786747835E0
1.090545208E1,-1.920428811E0,-9.113780218E-1,1.285768223E0,2.484322169E0
1.091542008E1,-1.803635064E0,-1.440553377E0,4.951813978E-1,2.360825723E0
1.092538708E1,-1.358067437E0,-1.994868836E0,-2.460274458E-1,2.425773761E0
1.093535508E1,-1.100420843E0,-1.968089173E0,-1.183493990E0,2.546558275E0
1.094532308E1,-8.302584296E-1,-1.769128305E0,-1.857324783E0,2.696071099E0
1.095529008E1,-3.645586932E-1,-1.639777370E0,-1.835829248E0,2.488381380E0
1.096525808E1,-1.471697402E-1,-1.457850611E0,-8.156824905E-1,1.676998885E0
1.097522508E1,-4.321845196E-1,-9.042584521E-1,4.208293730E-1,1.086997778E0
1.098519308E1,-9.178761788E-1,-4.505045772E-2,6.303520668E-1,1.114392189E0
1.099516008E1,-1.228928463E0,4.510518765E-1,6.616247302E-1,1.466785685E0
1.100512808E1,-1.647330219E0,8.047698319E-1,3.824739772E-1,1.872868835E0
1.101509508E1,-1.882919654E0,1.964073890E-1,2.389447135E-1,1.908155355E0
1.102506308E1,-2.174162010E0,-3.150345308E-1,-1.942813414E-1,2.205441552E0
1.103503108E1,-2.090197894E0,-5.358885437E-1,3.605217755E-2,2.158101834E0
1.104499808E1,-1.200754970E0,-4.860439539E-1,7.690164471E-1,1.506465240E0
1.105496608E1,-6.820940781E-1,1.218355089E-1,1.133058246E0,1.328125450E0
1.106493308E1,-9.560092342E-1,6.323079604E-1,1.584736360E0,1.955800691E0
1.107490108E1,-1.184648084E0,6.417184693E-1,2.022196968E0,2.429912396E0
1.108486808E1,-1.032449592E0,5.742392617E-1,1.772934258E0,2.130492613E0
1.109483608E1,-1.129449930E0,5.532857645E-1,1.307194176E0,1.813984259E0
1.110480408E1,-1.252767562E0,4.004734612E-1,9.994546312E-1,1.651882295E0
1.111477108E1,-8.584292914E-1,6.054859051E-1,9.888238084E-1,1.442666473E0
1.112473908E1,-6.242991753E-1,4.582126692E-1,7.822931349E-1,1.100768304E0
1.113470608E1,-2.773503953E-1,-7.760132253E-2,6.456448746E-1,7.069671217E-1
1.114467408E1,-1.720281543E-1,-2.772831523E-1,7.420058191E-1,8.105876066E-1
1.115464108E1,-4.497869776E-1,-6.163114402E-1,4.589801162E-1,8.903992720E-1
1.116460908E1,-7.659938020E-1,-1.147682425E0,9.404895544E-2,1.383028076E0
1.117457708E1,-8.599770494E-1,-1.493997513E0,-2.060032547E-1,1.736095169E0
1.118454408E1,-8.798925928E-1,-1.560578296E0,-6.494987744E-1,1.905640116E0
1.119451208E1,-7.280672264E-1,-1.501662628E0,-1.440071567E0,2.204286427E0
1.120447908E1,-2.333226887E-1,-1.494253329E0,-1.815906615E0,2.363207423E0
1.121444708E1,5.371937884E-1,-1.341714383E0,-1.422600086E0,2.027946167E0
1.122441408E1,1.120763818E0,-9.014474031E-1,-1.060918808E-1,1.442211650E0
1.123438208E1,1.261638519E0,-3.779511559E-1,9.783163619E-1,1.640634552E0
1.124434908E1,1.151952866E0,-2.228332955E-1,1.859098243E0,2.198384944E0
1.125431708E1,7.660785136E-1,-4.979950780E-1,2.498814626E0,2.660629610E0
1.126428508E1,2.450648479E-2,-9.088435462E-1,2.347683397E0,2.517581079E0
1.127425208E1,-6.416958113E-1,-8.222471595E-1,2.042969787E0,2.293815480E0
1.128422008E1,-8.714070404E-1,-4.928828573E-1,1.470938433E0,1.779309871E0
1.129418708E1,-9.578652866E-1,2.711184329E-1,6.473996240E-1,1.187492057E0
1.130415508E1,-7.566687356E-1,1.319877371E0,3.514527440E-1,1.561455373E0
1.131412208E1,-1.405980984E0,2.992623682E0,1.901847821E-1,3.311910216E0
1.132409008E1,-3.847592737E0,5.846336231E0,-1.146439599E0,7.092104128E0
1.133405808E1,-2.551285200E0,6.176551303E0,-6.122286218E-1,6.710712783E0
1.134402508E1,-5.011019960E-2,2.617161393E0,-2.470898849E-1,2.629277126E0
1.135399308E1,1.279467118E0,-1.171075088E0,-2.704869336E-1,1.755453260E0
1.136396008E1,2.279750445E-1,-8.956531048E-1,-5.454697913E-1,1.073174915E0
1.137392808E1,-7.396207398E-1,-1.843820053E-1,-7.961691624E-1,1.102234502E0
1.138389508E1,-4.812679482E-1,1.466051915E-1,-6.056662917E-1,7.873649580E-1
1.139386308E1,4.068153512E-1,-2.682761014E-1,-9.346949637E-2,4.961928489E-1
1.140383108E1,7.823214939E-1,-4.264342216E-1,8.030501658E-1,1.199484320E0
1.141379808E1,6.203018725E-1,-3.058970869E-1,8.945824796E-1,1.130763129E0
1.142376608E1,6.209134912E-1,-6.251322573E-1,3.800052828E-1,9.595456830E-1
1.143373308E1,9.681679344E-1,-6.471055090E-1,-1.180324799E-1,1.170481249E0
1.144370108E1,1.489336697E0,4.716539562E-2,-5.981344932E-1,1.605650412E0
1.145366796E1,1.621125629E0,6.390650028E-1,-1.334539264E0,2.194868432E0
1.146363596E1,1.791579567E0,5.838748884E-1,-1.791430171E0,2.599978709E0
1.147360296E1,1.897957084E0,2.953294140E-1,-2.006708863E0,2.777830272E0
1.148357096E1,1.848892513E0,2.284442836E-1,-2.050007495E0,2.770039900E0
1.149353896E1,1.792012846E0,6.475259238E-1,-2.161218613E0,2.881226433E0
1.150350596E1,1.356039476E0,7.402756280E-1,-1.949243597E0,2.487247810E0
1.151347396E1,7.132611993E-1,1.836408707E-1,-1.494973998E0,1.666557159E0
1.152344096E1,5.892239213E-1,-4.518903673E-1,-9.153471118E-1,1.178664528E0
1.153340896E1,5.502785414E-1,-1.311714366E0,1.055285016E0,1.771165581E0
1.154337596E1,1.552347170E0,-8.136055595E-1,3.979919028E-1,1.797257160E0
1.155334396E1,1.573542158E0,-5.825534177E-1,-1.344198280E0,2.149947074E0
1.156331196E1,1.390565823E0,-6.413442475E-1,-1.460147982E0,2.115898835E0
1.157327896E1,1.252365419E0,-7.407083219E-1,-9.162399817E-1,1.719466099E0
1.158324696E1,1.297816411E0,-1.208535568E0,-3.569070268E-1,1.808941205E0
1.159321396E1,1.521855695E0,-1.054651178E0,-7.499521852E-2,1.853094208E0
1.160318196E1,1.489193148E0,-1.037940420E0,4.355789745E-1,1.866747329E0
1.161314896E1,1.688036487E0,-7.204769558E-1,3.473865902E-1,1.867948519E0
1.162311696E1,2.016840042E0,-1.677232879E-1,-2.713622618E-1,2.041913889E0
1.163308496E1,1.999535499E0,1.888650656E-3,-4.499502611E-1,2.049536781E0
1.164305196E1,1.127292599E0,-4.140413404E-1,-9.763838571E-1,1.547754591E0
1.165301996E1,9.020239386E-1,6.719719630E-1,-1.690524185E0,2.030533311E0
1.166298696E1,3.184674311E-1,5.156332040E-1,-1.157041771E0,1.306156486E0
1.167295496E1,9.354007226E-1,5.236725408E-1,-7.391775209E-1,1.302148551E0
1.168292196E1,1.082329558E0,5.949758273E-1,-7.049140066E-1,1.422089049E0
1.169288996E1,8.445870316E-1,6.416412860E-1,-9.847757810E-1,1.447347274E0
1.170285796E1,2.848272300E-1,4.558343142E-1,-5.155238611E-1,7.447659527E-1
1.171282496E1,2.659746373E-1,5.920405251E-1,-1.213519442E-1,6.602884107E-1
1.172279296E1,1.765888363E-1,2.002928638E-1,-2.012482989E-1,3.343676513E-1
1.173275996E1,2.130362856E-1,-3.452845162E-1,-1.474188316E-1,4.316690492E-1
1.174272796E1,1.612112439E-1,-8.773103893E-1,2.029954469E-1,9.148058459E-1
1.175269496E1,6.383247453E-1,-1.020856610E0,7.242033863E-1,1.405018592E0
1.176266296E1,7.570928049E-1,-6.884862542E-1,7.108840138E-1,1.246017222E0
1.177262996E1,6.190996850E-1,-1.011252558E-1,3.531197852E-1,7.198640983E-1
1.178259796E1,3.789273486E-1,3.162583530E-2,1.035144281E-1,3.940829428E-1
1.179256596E1,3.265254790E-1,-6.872022057E-1,1.157853949E-1,7.695921112E-1
1.180253296E1,5.624726173E-1,-1.410264800E0,-1.970470744E-1,1.531029001E0
1.181250096E1,3.330840084E-1,-7.079019338E-1,-2.984477341E-1,8.373417191E-1
1.182246796E1,3.797252011E-1,3.730348170E-2,-1.626344562E-1,4.147683021E-1
1.183243596E1,9.055755374E-1,5.058882344E-1,1.036196780E-1,1.042461988E0
1.184240296E1,4.922662684E-1,-4.328693748E-3,3.519035643E-1,6.051288584E-1
1.185237096E1,3.324753132E-1,-3.666169131E-1,-1.367581880E-1,5.134691781E-1
1.186233896E1,1.366377354E-1,6.705060661E-2,-4.347018921E-1,4.605772352E-1
1.187230596E1,4.040773925E-1,-3.177657652E-1,-1.307086587E-2,5.142221973E-1
1.188227396E1,5.356619641E-1,-1.162455123E0,4.904814059E-1,1.370696050E0
1.189224096E1,7.213274333E-1,-1.102184363E0,5.434133255E-1,1.424928657E0
1.190220896E1,8.557411802E-1,-2.739362061E-1,4.617815173E-1,1.010235706E0
1.191217596E1,1.282629146E0,8.576216447E-1,4.783957958E-1,1.615399315E0
1.192214396E1,1.502085966E0,1.669129808E0,1.253505042E0,2.571678723E0
1.193211096E1,1.134358375E0,8.868173772E-1,1.521404582E0,2.094728117E0
1.194207896E1,8.688591161E-1,2.568635058E-1,9.880508065E-1,1.340574288E0
1.195204696E1,5.982198626E-1,3.465270495E-1,4.535462987E-1,8.268326585E-1
1.196201396E1,4.705374303E-1,-5.954377574E-1,6.192125362E-1,9.794772898E-1
1.197198196E1,2.184899837E-1,-9.492557001E-1,1.196597015E0,1.542941565E0
1.198194896E1,2.976642072E-1,-8.195252806E-1,6.582011855E-1,1.092453416E0
1.199191696E1,4.993399376E-1,-5.308707556E-1,1.221728933E-1,7.389792611E-1
1.200188396E1,5.074693215E-1,-2.300879359E-1,2.759499872E-1,6.217828929E-1
1.201185196E1,3.239988971E-1,1.469580710E-2,5.396921575E-1,6.296498050E-1
1.202181996E1,9.534177482E-3,7.175410688E-2,6.912268442E-1,6.950065485E-1
1.203178696E1,-2.200289708E-1,-5.301202655E-2,5.455995995E-1,5.906792242E-1
1.204175496E1,-5.266704082E-2,-4.922420025E-2,4.887734342E-1,4.940610377E-1
1.205172196E1,2.927870446E-1,3.238188028E-3,9.469261694E-1,9.911629077E-1
1.206168996E1,7.103057241E-1,1.359898639E-1,1.166511337E0,1.372507254E0
1.207165696E1,1.042503295E0,4.746810597E-1,1.030935456E0,1.541091542E0
1.208162496E1,7.718470842E-1,5.666723800E-1,1.054718421E0,1.424533767E0
1.209159196E1,4.757974394E-1,6.001003271E-1,5.932959223E-1,9.687639843E-1
1.210155996E1,2.219893961E-1,-3.850648785E-1,-8.031443059E-2,4.516687507E-1
1.211152796E1,1.228830376E-1,-1.602132996E0,1.779594237E-1,1.616663210E0
1.212149496E1,3.286632210E-2,-1.388038364E0,5.910979539E-1,1.509015403E0
1.213146296E1,1.809852116E-1,-1.309085750E0,8.178295881E-1,1.554125601E0
1.214142996E1,5.893721482E-1,-1.356596716E0,9.589112073E-1,1.762732221E0
1.215139796E1,9.746118584E-1,-1.253026739E0,1.164835525E0,1.968955582E0
1.216136496E1,1.456243211E0,-1.257935477E0,1.583737071E0,2.492241774E0
1.217133296E1,1.973909492E0,-1.331905094E0,1.857223041E0,3.019862130E0
1.218129996E1,2.338219094E0,-1.489806229E0,2.200694920E0,3.539752712E0
1.219126796E1,2.508781205E0,-1.765773758E0,2.038565079E0,3.683434223E0
1.220123596E1,2.328360688E0,-2.323313956E0,1.716420334E0,3.710141506E0
1.221120296E1,2.118627787E0,-2.700609055E0,1.124689127E0,3.612035243E0
1.222117096E1,1.744371194E0,-2.884077140E0,4.507975227E-1,3.400580865E0
1.223113796E1,1.135962558E0,-2.981745522E0,2.199026710E-1,3.198370597E0
1.224110596E1,6.843078339E-1,-2.995543782E0,8.316728711E-2,3.073837432E0
1.225107296E1,5.420637882E-1,-3.031004806E0,1.291065216E-3,3.079094826E0
1.226104096E1,3.422629675E-1,-2.823356144E0,-1.034711587E-1,2.845907612E0
1.227100896E1,7.806503597E-1,-2.721010575E0,-4.435440516E-1,2.865317584E0
1.228097596E1,1.500016052E0,-2.798819473E0,-7.523431116E-1,3.263350848E0
1.229094396E1,2.238149553E0,-3.066514946E0,-4.652337134E-1,3.824822838E0
1.230091096E1,1.879789200E0,-2.576830516E0,-1.148270363E-1,3.191684225E0
1.231087896E1,5.498654357E-1,-1.299788092E0,-5.346541965E-1,1.509190575E0
1.232084596E1,-1.714391935E-1,-4.690133536E-1,-1.061944410E0,1.173495144E0
1.233081396E1,-9.720341134E-1,6.331160456E-1,-1.244334853E0,1.701192368E0
1.234078096E1,-1.702984602E0,1.584614738E0,-1.320463847E0,2.674843022E0
1.235074896E1,-1.993433053E0,2.149438813E0,-1.271130888E0,3.195252147E0
1.236071696E1,-1.410012493E0,1.146975789E0,-1.114135487E0,2.131897412E0
1.237068396E1,-5.677517760E-1,-1.033289545E0,-1.498992789E0,1.907094320E0
1.238065196E1,4.293888196E-1,-1.658406014E0,-1.024724543E0,1.996182771E0
1.239061896E1,1.423882965E0,-1.129416016E0,-2.701361006E-1,1.837388568E0
1.240058696E1,1.559262088E0,-9.563156283E-1,-1.118917925E0,2.144251655E0
1.241055396E1,1.129775327E0,-9.031872422E-1,-1.726665241E0,2.252445857E0
1.242052196E1,7.484248924E-1,-9.993578598E-1,-1.639211360E0,2.060550857E0
1.243048896E1,6.654453009E-1,-1.041234156E0,-1.705832781E0,2.106383510E0
1.244045696E1,4.213702404E-1,-9.266538727E-1,-1.623777634E0,1.916479607E0
1.245042487E1,3.294204354E-2,-7.706653619E-1,-1.499549444E0,1.686315159E0
1.246039188E1,-1.350282893E-1,-9.360485941E-1,-1.677930452E0,1.926102337E0
1.247035988E1,5.105496347E-2,-1.327933080E0,-1.508476388E0,2.010351683E0
1.248032687E1,3.716209602E-1,-1.002952728E0,-1.310757469E0,1.691774647E0
1.249029487E1,6.153989822E-1,-7.382314414E-1,-1.407643493E0,1.704453511E0
1.250026187E1,1.251361452E0,-1.266580293E0,-1.753646048E0,2.499080948E0
1.251022987E1,1.592994967E0,-1.550614348E0,-2.189311561E0,3.120115852E0
1.252019688E1,1.408037596E0,-1.121953799E0,-2.183511708E0,2.830030667E0
1.253016488E1,1.195796531E0,-7.306712839E-1,-1.114706175E0,1.790636682E0
1.254013288E1,9.102179343E-1,-8.163537508E-1,2.559343833E-1,1.249172743E0
1.255009987E1,6.908783501E-1,-8.637150282E-1,1.036994925E0,1.516138193E0
1.256006787E1,1.469630411E-1,-6.873697284E-1,9.710225451E-1,1.198732690E0
1.257003487E1,-1.707419130E-1,-6.067901266E-1,9.339330715E-1,1.126755537E0
1.258000287E1,1.037424695E-1,-4.915134394E-1,1.376702367E0,1.465488781E0
1.258996987E1,-1.699902534E-2,-2.478690264E-1,1.275458997E0,1.299432059E0
1.259993787E1,-4.496462059E-1,-2.548605421E-1,1.518238900E0,1.603803281E0
1.260990587E1,-5.598849320E-1,-6.702780247E-2,1.988430467E0,2.066838065E0
1.261987287E1,-9.969397438E-1,3.864883831E-1,1.535813876E0,1.871359502E0
1.262984087E1,-1.051418252E0,9.127415925E-2,6.974219692E-1,1.264993564E0
1.263980788E1,-1.308039683E-1,-2.725822833E-1,2.117884898E-1,3.691410892E-1
1.264977588E1,-3.516299146E-1,-2.602338409E-1,-8.893860590E-1,9.911472196E-1
1.265974287E1,-5.019951582E-1,6.035408288E-2,-8.059030223E-1,9.513787025E-1
1.266971087E1,-3.567754644E-1,-8.411570549E-2,-1.115227747E-1,3.831468559E-1
1.267967787E1,-4.683976418E-1,-6.362712032E-1,1.013874450E0,1.285371073E0
1.268964587E1,-3.877733088E-1,-1.237671951E0,2.649693840E0,2.950097870E0
1.269961387E1,-2.157184035E-1,-1.771065488E0,4.005546790E0,4.384930156E0
1.270958088E1,-4.871169180E-1,-1.879396560E0,3.990469159E0,4.437708692E0
1.271954888E1,-5.973515511E-2,-1.658351343E0,3.752564081E0,4.103100614E0
1.272951587E1,1.730506861E-1,-1.389219502E0,3.093444883E0,3.395479142E0
1.273948387E1,-2.475436288E-1,-9.235297054E-1,2.605017019E0,2.774941195E0
1.274945087E1,-2.384962320E-1,-6.154779196E-1,2.023048323E0,2.128007998E0
1.275941887E1,-1.227260399E-1,-4.767731935E-1,1.542587875E0,1.619244179E0
1.276938587E1,2.104237497E-1,-4.379555753E-1,1.824200891E0,1.887800871E0
1.277935387E1,5.974743426E-2,-8.016462493E-1,1.847730086E0,2.015021821E0
1.278932187E1,-1.351905495E-1,-9.300891119E-1,1.779751527E0,2.012674275E0
1.279928887E1,-5.157834774E-1,-9.189592293E-1,1.265988262E0,1.647193049E0
1.280925687E1,-4.752207577E-1,-1.247145025E0,1.663072677E0,2.132373375E0
1.281922388E1,-4.813211578E-1,-1.269331408E0,2.561359953E0,2.898868242E0
1.282919188E1,-9.704495180E-1,-1.370794340E0,3.233308527E0,3.643505650E0
1.283915887E1,-1.334941553E0,-2.091067521E0,3.932772344E0,4.649874260E0
1.284912687E1,-1.551783206E0,-2.558528731E0,4.126057904E0,5.096906338E0
1.285909387E1,-1.828866384E0,-2.410320233E0,3.546324599E0,4.661632121E0
1.286906187E1,-1.392167668E0,-1.788360090E0,3.016587911E0,3.773084315E0
1.287902888E1,-8.238282466E-1,-1.228709631E0,2.788682156E0,3.156765513E0
1.288899688E1,-8.208999610E-1,-7.971944717E-1,2.555641961E0,2.800125283E0
1.289896487E1,-6.670029992E-1,-2.141683066E-1,2.164800618E0,2.275329158E0
1.290893187E1,-6.169040555E-1,5.620238435E-1,1.702674407E0,1.896191328E0
1.291889987E1,-6.084869885E-1,1.130040498E0,1.403341989E0,1.901740435E0
1.292886687E1,-4.330120468E-1,1.286034856E0,1.371696858E0,1.929491476E0
1.293883488E1,-1.666462308E-1,1.046696041E0,1.504143309E0,1.840051810E0
1.294880187E1,1.230704409E-1,2.823430404E-1,1.736478038E0,1.763581555E0
1.295876987E1,3.469299227E-1,-5.783440071E-1,1.521316874E0,1.664105523E0
1.296873687E1,3.139054334E-1,-5.982093376E-1,1.708493556E0,1.837210185E0
1.297870487E1,-4.426576138E-2,-3.659707958E-1,2.326092553E0,2.355122215E0
1.298867287E1,-2.962491810E-1,-5.148794979E-1,2.885131978E0,2.945649505E0
1.299863988E1,-5.550872916E-1,-5.544411743E-1,3.198177871E0,3.293002977E0
1.300860788E1,-7.040860409E-1,-1.161761059E0,3.457893063E0,3.715164915E0
1.301857487E1,-4.027304864E-1,-4.099184686E-1,3.075510010E0,3.128735658E0
1.302854287E1,-4.641467160E-1,6.914285731E-1,2.354638075E0,2.497564035E0
1.303850987E1,-3.792428058E-1,5.679061425E-1,1.745937663E0,1.874737533E0
1.304847787E1,-4.857457459E-1,4.609336710E-1,2.339402570E0,2.433354303E0
1.305844488E1,-8.761315906E-1,4.959403664E-1,1.998865116E0,2.238085155E0
1.306841287E1,-9.904089886E-1,6.899404567E-1,1.871305475E0,2.226816557E0
1.307838087E1,-4.532077450E-1,7.131211585E-1,1.510936604E0,1.731146577E0
1.308834787E1,7.966071188E-2,6.985042888E-1,8.211496371E-1,1.080990655E0
1.309831587E1,2.379922020E-1,8.929218704E-1,4.492260835E-1,1.027498822E0
1.310828287E1,1.615474588E-1,1.439985613E0,4.397834149E-1,1.514287158E0
1.311825088E1,-2.573002928E-1,1.985236718E0,5.253705722E-1,2.069633423E0
1.312821787E1,-1.031496204E0,2.302077454E0,5.581661430E-1,2.583620418E0
1.313818587E1,-1.551566275E0,2.217152494E0,4.196461889E-1,2.738471473E0
1.314815287E1,-1.473879583E0,1.782584503E0,1.616035920E-1,2.318629823E0
1.315812087E1,-1.114134902E0,1.307151491E0,2.342765889E-1,1.733443717E0
1.316808887E1,-8.521112287E-1,9.604770917E-1,7.039465848E-1,1.464291837E0
1.317805588E1,-1.270419867E0,4.805230129E-1,7.278055635E-1,1.540963965E0
1.318802388E1,-1.729626855E0,-2.747185636E-1,1.478243360E-1,1.757535599E0
1.319799087E1,-1.845819801E0,-9.455275154E-1,9.291225672E-3,2.073923660E0
1.320795887E1,-1.738305293E0,-1.226803731E0,-5.573229745E-1,2.199400278E0
1.321792587E1,-1.567324521E0,-1.050856919E0,-1.140467838E0,2.204874896E0
1.322789387E1,-1.626024134E0,-6.166578877E-1,-1.002565935E0,2.007326553E0
1.323786088E1,-1.569216095E0,-1.213513595E-1,-9.370338500E-1,1.831719886E0
1.324782887E1,-1.607259834E0,5.188023949E-1,-1.155695742E0,2.046478133E0
1.325779687E1,-2.001867954E0,1.227653916E0,-1.584458617E0,2.832864019E0
1.326776387E1,-2.060102128E0,1.698664094E0,-1.973803657E0,3.320448970E0
1.327773187E1,-1.636994680E0,1.881969627E0,-1.913423847E0,3.143684475E0
1.328769888E1,-1.372114642E0,1.885547538E0,-1.970147978E0,3.052780890E0
1.329766688E1,-1.405802205E0,1.917359315E0,-2.223804286E0,3.255434239E0
1.330763387E1,-1.266936096E0,1.730033237E0,-2.605726871E0,3.374604362E0
1.331760187E1,-8.496939898E-1,1.320309480E0,-2.574427310E0,3.015439102E0
1.332756887E1,-4.357830423E-1,1.100029664E0,-2.234402072E0,2.528344269E0
1.333753687E1,-3.248315406E-1,1.058833691E0,-1.748392617E0,2.069666895E0
1.334750487E1,-2.391897118E-1,9.846132284E-1,-1.562035422E0,1.861888715E0
1.335747188E1,9.941319108E-2,1.102365627E0,-1.491651902E0,1.857449422E0
1.336743988E1,3.927370101E-1,1.073541192E0,-1.089930353E0,1.579455990E0
1.337740687E1,7.126317465E-1,8.919214118E-1,-9.240694034E-1,1.468765493E0
1.338737487E1,1.162320637E0,6.410589033E-1,-9.840100881E-1,1.652338232E0
1.339734187E1,1.376155068E0,8.178032756E-1,-1.279197707E0,2.049134388E0
1.340730987E1,1.386069022E0,1.183078253E0,-1.287992504E0,2.231543452E0
1.341727687E1,1.552873712E0,1.389158106E0,-1.255300137E0,2.432479279E0
1.342724487E1,1.542725285E0,1.469012945E0,-1.199143478E0,2.444574691E0
1.343721287E1,1.052190084E0,1.507412195E0,-1.624369372E0,2.453155388E0
1.344717987E1,3.964026296E-1,1.311745064E0,-1.481604924E0,2.018158395E0
1.345714808E1,-1.515615839E-1,1.368314536E0,-1.532958388E0,2.060392439E0
1.346711508E1,-1.672303677E-3,1.576222814E0,-1.410714743E0,2.115324382E0
1.347708308E1,6.896691459E-1,2.203329968E0,-6.767678493E-1,2.405893015E0
1.348705008E1,9.989652193E-1,3.305067896E0,1.032360422E0,3.603772100E0
1.349701808E1,4.257193995E-1,5.022316196E0,3.432553570E0,6.098140781E0
1.350698508E1,1.141833748E0,3.439932171E0,-1.330595610E0,3.861010532E0
1.351695308E1,1.851576385E0,2.822708858E0,4.438796818E-2,3.376091038E0
1.352692108E1,1.844645095E0,2.375562921E0,-1.261206994E0,3.261388938E0
1.353688808E1,1.472588518E0,5.629269460E-1,-1.972859624E0,2.525386859E0
1.354685608E1,1.144363838E0,-1.045058236E-1,-1.238983189E0,1.689843012E0
1.355682308E1,1.464149816E0,-1.013086537E0,-1.152016381E0,2.120665169E0
1.356679108E1,1.609178306E0,-1.136058453E0,5.762705845E-1,2.052357526E0
1.357675808E1,5.530360883E-1,-1.022073416E0,-1.338219794E0,1.772375581E0
1.358672608E1,-6.907801169E-1,-1.189298521E0,-1.380379681E0,1.948603655E0
1.359669308E1,-9.504689974E-1,-7.905953041E-1,-3.749196669E-1,1.291896670E0
1.360666108E1,-8.308045596E-1,-5.601360700E-1,-7.012761614E-1,1.223019578E0
1.361662908E1,-4.232717550E-1,-8.051206648E-1,-5.250156462E-1,1.050247443E0
1.362659608E1,1.427135772E-1,-1.199502789E0,-7.637048364E-1,1.429132318E0
1.363656408E1,6.053838712E-1,-1.628336416E0,-1.977640600E0,2.632305350E0
1.364653108E1,1.049277586E0,-1.695028296E0,-1.943543147E0,2.784145172E0
1.365649908E1,1.132382308E0,-1.541247986E0,-2.656062919E0,3.272981099E0
1.366646608E1,1.512400455E0,-1.946667899E0,-3.132999542E0,3.986547024E0
1.367643408E1,1.711234438E0,-2.449396883E0,-2.430406588E0,3.851589876E0
1.368640108E1,1.567225703E0,-2.640196792E0,-1.937025256E0,3.630275795E0
1.369636908E1,1.337212611E0,-2.541927024E0,-2.013172083E0,3.507476643E0
1.370633608E1,1.047570199E0,-2.250508228E0,-1.865098656E0,3.104961127E0
1.371630408E1,6.736723334E-1,-2.096039701E0,-1.839977263E0,2.869273979E0
1.372627208E1,4.480750591E-1,-2.464694661E0,-2.239739703E0,3.360345959E0
1.373623908E1,6.891060591E-1,-2.685417988E0,-2.757049304E0,3.909943452E0
1.374620708E1,1.184916033E0,-3.281342526E0,-2.605423400E0,4.354246878E0
1.375617408E1,1.905655528E0,-3.643398319E0,-2.470417915E0,4.796752962E0
1.376614208E1,2.101280560E0,-3.378379994E0,-2.530284633E0,4.714994347E0
1.377610908E1,1.967343069E0,-2.621672813E0,-1.736093291E0,3.709127526E0
1.378607708E1,1.172943859E0,-2.056966267E0,-1.669142672E0,2.897057952E0
1.379604408E1,7.170253444E-1,-1.469760219E0,-1.564564050E0,2.263223611E0
1.380601208E1,3.304512995E-1,-8.521509898E-1,-1.218163301E0,1.522918645E0
1.381598008E1,-1.775039256E-2,-3.596952716E-1,-1.346480448E0,1.393809658E0
1.382594708E1,-2.026668334E-1,-1.570418867E-1,-1.613925660E0,1.634164018E0
1.383591508E1,-3.556604004E-1,4.177163154E-2,-2.144516919E0,2.174210663E0
1.384588208E1,-4.963660437E-1,2.151263729E-1,-2.173219731E0,2.239540713E0
1.385585008E1,-6.782390088E-1,3.341828464E-1,-1.876450733E0,2.023055531E0
1.386581708E1,-1.120237057E0,2.921521832E-1,-1.651382924E0,2.016767097E0
1.387578508E1,-1.767408639E0,2.241454107E-1,-1.576467227E0,2.378912227E0
1.388575208E1,-2.047934073E0,4.166462749E-2,-1.780332155E0,2.713918291E0
1.389572008E1,-2.035360220E0,-2.911200035E-1,-1.591602160E0,2.600122981E0
1.390568808E1,-1.935122572E0,-1.824968630E-1,-1.336503929E0,2.358865665E0
1.391565508E1,-1.932838064E0,6.085109621E-2,-1.380866169E0,2.376206476E0
1.392562308E1,-1.505394321E0,-1.249184534E-2,-1.855517408E0,2.389416866E0
1.393559008E1,-8.017000437E-1,-2.175403959E-1,-1.723062186E0,1.912848682E0
1.394555808E1,-3.199251419E-1,-3.353169139E-1,-1.374656719E0,1.450679366E0
1.395552508E1,-3.369311839E-1,2.637582502E-1,-1.074773785E0,1.156818796E0
1.396549308E1,-8.306408376E-1,5.214698946E-1,-2.248081926E-1,1.006197682E0
1.397546008E1,-1.283625804E0,5.751604906E-1,-1.599979466E-1,1.415663850E0
1.398542808E1,-1.630602504E0,1.091761409E-1,-3.741326317E-1,1.676531891E0
1.399539608E1,-1.669145011E0,-8.306287046E-1,-7.017582643E-1,1.992097832E0
1.400536308E1,-1.524928699E0,-1.701867784E0,-6.697918287E-1,2.381256514E0
1.401533108E1,-1.522781602E0,-1.819887692E0,-6.139120352E-1,2.451069767E0
1.402529808E1,-1.716530846E0,-1.930199801E0,-2.133970588E-2,2.583138556E0
1.403526608E1,-1.766974191E0,-1.584756533E0,4.299092218E-1,2.412151114E0
1.404523308E1,-1.957809184E0,-1.283539119E0,1.182935581E-1,2.344031321E0
1.405520108E1,-1.664045069E0,-1.299460648E0,5.838836592E-1,2.190562507E0
1.406516808E1,-1.169638427E0,-1.207504704E0,4.232968980E-1,1.733580666E0
1.407513608E1,-5.645960337E-1,-1.401962631E0,2.236735404E-2,1.511544971E0
1.408510308E1,-2.451538718E-1,-1.980964742E0,2.212808597E-1,2.008304496E0
1.409507108E1,1.939556515E-1,-2.570298299E0,1.053724979E0,2.784670262E0
1.410503908E1,3.670940459E-1,-2.630112099E0,1.588976176E0,3.094687865E0
1.411500608E1,2.881502026E-1,-2.782691391E0,1.693981936E0,3.270470412E0
1.412497408E1,5.175955296E-1,-3.160048762E0,1.418587142E0,3.502313919E0
1.413494108E1,1.327626686E0,-3.550418527E0,1.028384900E0,3.927548833E0
1.414490908E1,2.080672633E0,-3.557891853E0,8.974207181E-1,4.218193570E0
1.415487608E1,2.411118085E0,-2.738212498E0,6.842166173E-1,3.712068222E0
1.416484408E1,2.373059728E0,-2.094805061E0,7.491853228E-1,3.252829440E0
1.417481108E1,2.516259794E0,-1.657529809E0,1.024927441E0,3.182678852E0
1.418477908E1,2.820504457E0,-1.011851971E0,1.117502168E0,3.198108957E0
1.419474708E1,3.025818910E0,5.520816766E-2,9.713252847E-1,3.178380221E0
1.420471408E1,2.868032380E0,1.105887112E0,8.706129885E-1,3.194771199E0
1.421468208E1,2.319174128E0,1.180732057E0,1.121799433E0,2.833924980E0
1.422464908E1,2.201303031E0,1.192076533E0,8.958342223E-1,2.658815610E0
1.423461708E1,2.067009444E0,1.374763430E0,1.326679145E0,2.814707815E0
1.424458408E1,2.003262514E0,9.912150273E-1,1.267583967E0,2.569501323E0
1.425455208E1,2.163592583E0,6.091114712E-1,1.171588474E0,2.534712844E0
1.426451908E1,2.235726174E0,3.058178571E-1,9.713768864E-1,2.456739535E0
1.427448708E1,1.916488665E0,-3.563813986E-1,6.714746574E-1,2.061750402E0
1.428445408E1,1.691832207E0,-6.038144785E-1,3.116203415E-1,1.823182761E0
1.429442208E1,1.240410202E0,-6.293334818E-1,1.683528869E-1,1.401078440E0
1.430439008E1,7.310691869E-1,-7.243910819E-1,1.104167739E-1,1.035082827E0
1.431435708E1,8.925014555E-2,-8.767224517E-1,9.098472208E-2,8.859379581E-1
1.432432508E1,-4.127719098E-1,-1.070426088E0,5.241185372E-1,1.261306030E0
1.433429208E1,-9.461759716E-1,-1.236553379E0,2.659125106E-1,1.579564083E0
1.434426008E1,-1.392537796E0,-1.218515011E0,1.239533705E-1,1.854536272E0
1.435422708E1,-1.624790372E0,-1.025314527E0,-2.331165013E-1,1.935344139E0
1.436419508E1,-1.458203782E0,-1.031488017E0,-4.981859896E-1,1.854323349E0
1.437416208E1,-9.701080406E-1,-1.118005759E0,-8.232078570E-1,1.693728923E0
1.438413008E1,-2.199412626E-1,-1.288994132E0,-8.907776964E-1,1.582202559E0
1.439409708E1,5.660800570E-1,-1.320630785E0,-6.890769692E-1,1.593530474E0
1.440406508E1,1.000149865E0,-1.008674228E0,-8.310975051E-1,1.645735858E0
1.441403308E1,1.188611473E0,-5.539719352E-1,-8.675866158E-1,1.572383119E0
1.442400008E1,1.329194325E0,-7.516157180E-2,-1.684780173E-1,1.341935787E0
1.443396808E1,1.290694503E0,1.377767730E-1,4.859082985E-1,1.385994810E0
1.444393508E1,1.089506430E0,1.597880316E-1,7.282964373E-1,1.320216716E0
1.445390725E1,1.069696648E0,3.529673099E-2,5.884786937E-1,1.221394265E0
1.446387425E1,1.210373640E0,-9.584141940E-2,3.236036253E-1,1.256546550E0
1.447384225E1,1.226870974E0,-2.493398752E-1,3.243361352E-1,1.293281365E0
1.448380925E1,1.304635434E0,-6.923269978E-1,2.673978496E-1,1.500963656E0
1.449377725E1,1.467755794E0,-1.263079565E0,3.011783838E-2,1.936642492E0
1.450374525E1,1.600966476E0,-1.583789988E0,1.984192698E-1,2.260719927E0
1.451371225E1,1.293021694E0,-1.756792434E0,2.262955780E-1,2.193042282E0
1.452368025E1,1.091872213E0,-1.602213103E0,2.897504394E-1,1.960415026E0
1.453364725E1,9.475430506E-1,-1.347622994E0,1.774780516E-1,1.656932113E0
1.454361525E1,9.313398314E-1,-1.223395682E0,4.990731584E-1,1.616528655E0
1.455358225E1,9.526541018E-1,-1.307796731E0,3.227090013E-1,1.649855517E0
1.456355025E1,7.381104040E-1,-1.363418663E0,2.752554841E-1,1.574637418E0
1.457351725E1,7.265457809E-1,-1.306101623E0,3.323428738E-1,1.531085239E0
1.458348525E1,6.718719757E-1,-1.259092349E0,5.207531722E-1,1.519180490E0
1.459345225E1,9.625803351E-1,-1.151264137E0,3.221682800E-1,1.534849314E0
1.460342025E1,1.090530277E0,-1.559707645E0,-1.418068202E-1,1.908416464E0
1.461338825E1,1.040078162E0,-2.449273799E0,2.839524865E-2,2.661110861E0
1.462335525E1,4.917935210E-1,-2.893523902E0,-3.655572514E-1,2.957697338E0
1.463332325E1,-1.989094126E-1,-2.120119704E0,-6.146593094E-1,2.216366075E0
1.464329025E1,-2.370771128E-1,2.163218069E0,-7.017209883E-1,2.286510511E0
1.465325825E1,2.962480116E-1,8.720777160E0,1.419480743E0,8.840511452E0
1.466322525E1,4.115720612E-1,6.627850517E0,-1.008961034E0,6.716829342E0
1.467319325E1,3.511937124E-1,-3.376306571E-1,-2.806356534E-1,5.622169103E-1
1.468316025E1,2.515594965E-1,-3.220105514E0,2.519961374E-1,3.239732050E0
1.469312825E1,-3.424351680E-1,-3.249746804E0,-5.344948599E-1,3.311163072E0
1.470309625E1,-9.295628625E-1,-2.041689539E0,-8.259127790E-1,2.390547052E0
1.471306325E1,-6.015685630E-1,-1.549721771E0,-1.017839447E-1,1.665497605E0
1.472303125E1,2.383746099E-1,-1.786479333E0,3.334813267E-1,1.832904978E0
1.473299825E1,3.425532818E-1,-1.965510844E0,6.908543766E-1,2.111363398E0
1.474296625E1,-1.555119628E-1,-1.275154650E0,7.738683204E-1,1.499691811E0
1.475293325E1,-5.467690426E-1,-1.536689204E-1,5.532155979E-1,7.928543503E-1
1.476290125E1,-7.846887392E-1,2.494422197E-1,4.082292080E-1,9.190260740E-1
1.477286825E1,-1.045084548E0,-3.102971166E-2,-4.540070593E-3,1.045554957E0
1.478283625E1,-9.754699373E-1,-1.128038412E0,-5.002006477E-1,1.572963110E0
1.479280325E1,-5.946150541E-1,-2.129362105E0,-2.303212398E-1,2.222790569E0
1.480277125E1,-4.712750566E-1,-2.275525832E0,-2.675627410E-2,2.323969425E0
1.481273925E1,-7.703162831E-1,-2.160293584E0,2.790685996E-2,2.293694473E0
1.482270625E1,-6.330686831E-1,-1.806270696E0,-1.200386596E-1,1.917758865E0
1.483267425E1,-3.805619377E-1,-1.223225820E0,5.198671728E-2,1.282112091E0
1.484264125E1,-3.613006246E-1,-8.197734949E-1,5.682865039E-1,1.060903518E0
1.485260925E1,-1.453728908E-1,-7.379496056E-1,6.434966075E-1,9.898438168E-1
1.486257625E1,-3.274586946E-1,-8.331413993E-1,1.727135941E-2,8.953502598E-1
1.487254425E1,-4.977483255E-1,-3.029962832E-1,-6.299434926E-1,8.581310779E-1
1.488251125E1,-1.084772524E0,1.980030942E-1,-9.109156533E-1,1.430281085E0
1.489247925E1,-1.777349491E0,7.408129871E-2,-1.038093617E0,2.059635309E0
1.490244625E1,-1.555042444E0,-9.032194018E-2,-1.129649612E0,1.924168211E0
1.491241425E1,-9.280899489E-1,-4.193506122E-1,-9.439300561E-1,1.388599957E0
1.492238225E1,-1.278828163E0,-2.059971735E0,-5.417774208E-1,2.484433093E0
1.493234925E1,-1.196975330E0,-3.655265828E0,-9.364947367E-1,3.958628627E0
1.494231725E1,-1.070383696E0,-4.909671925E0,-1.664953727E0,5.293644357E0
1.495228425E1,7.923275417E-1,-5.137999849E0,-1.824391218E0,5.509557940E0
1.496225225E1,2.315138379E0,-4.027462739E0,-1.871821492E0,5.008396702E0
1.497221925E1,1.568294574E0,-2.993337919E0,-1.134378255E0,3.564608505E0
1.498218725E1,4.320069104E-1,-1.092112826E0,-5.339316268E-1,1.290125334E0
1.499215425E1,-2.880297500E-1,8.654235846E-1,-1.326057293E0,1.609455518E0
1.500212225E1,-4.487591833E-1,4.224699263E0,-5.982356501E-1,4.290379303E0
1.501208925E1,-9.125047803E-1,9.296110436E0,7.848318790E0,1.220026402E1
1.502205725E1,-3.338102911E0,1.126508078E1,1.154022152E1,1.646880957E1
1.503202525E1,-6.254846106E0,1.311247466E1,2.828667463E0,1.480072468E1
1.504199225E1,-5.762646788E0,1.243882747E1,-8.374206841E-1,1.373440207E1
1.505196025E1,-3.543729020E0,9.407779976E0,1.525980029E-1,1.005423421E1
1.506192725E1,-1.386265488E0,3.730654564E0,4.791606116E-1,4.008629488E0
1.507189525E1,-6.204457140E-1,3.197269213E-1,-9.446691442E-1,1.174554375E0
1.508186225E1,-1.357302475E-1,-1.115454619E0,-1.607623824E0,1.961406655E0
1.509183025E1,4.084309369E-1,-2.902695259E0,-2.653519088E-1,2.943274917E0
1.510179725E1,9.154810131E-2,-5.087896228E0,1.640294849E0,5.346553682E0
1.511176525E1,-1.061667252E0,-4.244533603E0,8.402185768E-2,4.376101294E0
1.512173225E1,-1.258164103E0,-3.295070912E0,-9.044128186E-1,3.641212953E0
1.513170025E1,-9.541100585E-1,-3.015740649E0,-2.894023839E-1,3.176282640E0
1.514166825E1,-1.077852929E0,-2.887895372E0,1.824430686E-1,3.087878250E0
1.515163525E1,-1.670639559E0,-2.425705719E0,5.455671474E-1,2.995451265E0
1.516160325E1,-2.606931397E0,-1.468001962E0,2.105050260E-1,2.999238809E0
1.517157025E1,-2.697735148E0,-8.266226310E-1,8.862449348E-2,2.822930074E0
1.518153825E1,-2.628753791E0,-1.313594538E-1,-1.142043078E-1,2.634510281E0
1.519150525E1,-2.161158972E0,4.823391581E-1,-3.202537555E-1,2.237369355E0
1.520147325E1,-1.629239518E0,1.304806173E0,-1.090271831E-1,2.090174032E0
1.521144025E1,-1.809261255E0,2.860563147E-1,1.326968290E0,2.261879604E0
1.522140825E1,-2.471462520E0,-8.650055087E-1,1.658319476E0,3.099416881E0
1.523137525E1,-2.365035009E0,-1.256353805E0,8.653458166E-1,2.814362958E0
1.524134325E1,-1.993724536E0,-1.115500227E0,2.160335684E-1,2.294765519E0
1.525131125E1,-1.761901147E0,-1.828689213E0,9.605995908E-1,2.714986457E0
1.526127825E1,-1.496857386E0,-2.316079196E0,6.162053132E-1,2.825688211E0
1.527124625E1,-1.327727258E0,-2.284687834E0,1.892718856E-1,2.649241782E0
1.528121325E1,-1.272109128E0,-1.676241776E0,5.252012953E-2,2.104948097E0
1.529118125E1,-9.528067142E-1,-1.340633817E0,-1.541444452E-1,1.651938309E0
1.530114825E1,-8.057539183E-1,5.186363339E-1,1.150549023E0,1.497326309E0
1.531111625E1,2.247825817E0,8.395681325E0,1.595399342E0,8.836599169E0
1.532108325E1,5.352020806E-1,6.712919319E0,-2.078207155E-1,6.737426548E0
1.533105125E1,1.504868656E-1,6.361149071E0,2.516208923E0,6.842380517E0
1.534101825E1,-6.471271437E-1,5.917482228E0,2.140323442E0,6.325848077E0
1.535098625E1,-1.663040518E0,3.570030965E0,3.212692414E0,5.082540448E0
1.536095425E1,-1.239699765E0,1.132123861E0,3.076772717E0,3.505009315E0
1.537092125E1,-4.649553859E-1,5.264365196E-2,1.997669360E0,2.051740173E0
1.538088925E1,4.667656839E-2,-6.247527730E-1,1.115755458E0,1.279611258E0
1.539085625E1,1.056329328E0,-8.038617593E0,7.494335371E-1,8.142288074E0
1.540082425E1,1.866202610E0,-6.920191419E0,7.084591734E-1,7.202338222E0
1.541079125E1,2.860048592E-2,-1.408828139E-2,-9.068237717E-1,9.073840535E-1
1.542075925E1,-1.300899648E0,5.776487732E-1,1.074886344E0,1.783647570E0
1.543072625E1,-1.185711839E0,1.699826521E-1,5.815305935E-1,1.331534640E0
1.544069425E1,-1.374928907E0,6.317097902E-1,-2.401992336E-2,1.513295647E0
1.545065663E1,-1.743922128E0,1.139166248E0,1.114200099E-1,2.085995817E0
1.546062463E1,-1.465647288E0,1.240581526E0,-1.276219136E-1,1.924435462E0
1.547059162E1,-7.679136622E-1,7.099461204E-1,-7.608408701E-1,1.293287948E0
1.548055962E1,-1.784745634E-1,5.493500036E-1,-6.320331413E-1,8.562152112E-1
1.549052762E1,3.655503809E-1,1.823636050E0,4.516557477E-1,1.913966676E0
1.550049462E1,5.429964191E-1,3.704055580E0,2.933626738E0,4.756157975E0
1.551046262E1,5.390770304E-1,4.089409896E0,4.302058511E0,5.959998722E0
1.552042963E1,2.975355685E-1,2.733438832E0,2.291268876E0,3.579123960E0
1.553039762E1,-2.331349200E-1,7.442160666E-1,-7.683299839E-2,7.836534657E-1
1.554036462E1,-9.837162656E-1,-5.319674009E-1,-5.430224392E-1,1.243205685E0
1.555033262E1,-1.169460087E0,-1.378250710E0,-1.093560305E0,2.112601727E0
1.556029962E1,-9.540024698E-1,-1.060353967E0,-1.198855795E0,1.863256951E0
1.557026762E1,-6.231032735E-1,-1.208880846E0,-2.780096689E-1,1.388142631E0
1.558023462E1,-3.063239336E-1,-2.181656971E0,2.627762103E-1,2.218673664E0
1.559020262E1,4.411724210E-2,-1.789415220E0,4.090127349E-1,1.836094926E0
1.560016962E1,4.675328386E-1,-1.102237573E0,1.410927290E-1,1.205579437E0
1.561013762E1,8.786844850E-2,1.782669872E-1,5.968019128E-2,2.075131519E-1
1.562010562E1,-2.837624520E-1,1.260722260E0,1.252982301E0,1.799973997E0
1.563007263E1,3.780505586E-1,1.310170408E0,1.120016617E0,1.764626291E0
1.564004063E1,8.493437415E-1,1.118810336E0,3.143910447E-1,1.439431516E0
1.565000762E1,5.019846332E-1,6.628643399E-1,-6.343381137E-1,1.045831032E0
1.565997562E1,3.527426398E-1,7.572495103E-2,-1.455376654E0,1.499427505E0
1.566994262E1,5.635487974E-1,-5.294256163E-1,-2.406474227E0,2.527646521E0
1.567991062E1,8.372996467E-1,-8.397958231E-1,-2.255652316E0,2.548390687E0
1.568987763E1,5.241929430E-1,-1.260580173E0,-1.167369708E0,1.796271875E0
1.569984563E1,-3.990368003E-1,-2.090940928E0,9.542348966E-1,2.332772722E0
1.570981262E1,-4.471340082E0,-9.345504205E0,-7.894227912E-1,1.039011642E1
1.571978062E1,-5.376009593E0,-8.187411690E0,-1.989179788E0,9.994599819E0
1.572974862E1,-3.838275199E0,-4.306699446E0,1.509135954E0,5.963011651E0
1.573971562E1,-9.895424312E-1,4.664104655E0,-6.146870837E-1,4.807380437E0
1.574968363E1,-8.392356598E-1,6.374641521E0,3.455088739E0,7.299178667E0
1.575965062E1,1.203940826E0,1.027517173E1,-1.011542726E0,1.039479900E1
1.576961862E1,1.530688791E0,7.125594749E0,-1.070813466E0,7.366393296E0
1.577958562E1,2.751848790E0,2.971639779E0,1.629852891E-1,4.053378707E0
1.578955362E1,3.853856860E0,-1.789745003E-1,1.120009746E0,4.017295906E0
1.579952063E1,1.327560613E0,1.390529278E0,-3.255501634E-1,1.949864550E0
1.580948863E1,-9.347806254E-1,1.855125060E0,-4.744182274E-2,2.077872598E0
1.581945562E1,-1.050541170E0,-8.090944326E-1,1.452658868E-1,1.333931306E0
1.582942362E1,-1.455063828E0,-7.615986693E-1,-1.232363703E0,2.053281172E0
1.583939062E1,-1.055539077E0,-4.572259516E-1,-1.787540164E0,2.125680633E0
1.584935862E1,-7.853155607E-1,1.128540688E0,-4.295282757E-1,1.440423255E0
1.585932662E1,-1.118548965E-1,3.197524152E0,3.302788067E-1,3.216481977E0
1.586929363E1,3.184253311E-1,3.080889156E0,6.073456120E-1,3.156286010E0
1.587926162E1,-1.823916131E-1,2.109729202E0,6.716791637E-1,2.221570819E0
1.588922862E1,-2.449215911E0,2.416934311E0,6.259221431E-1,3.497428852E0
1.589919662E1,-2.951676216E0,9.907095355E-1,3.394026558E-1,3.131947003E0
1.590916362E1,-2.756217537E0,-2.191448718E-1,1.045710200E-1,2.766892605E0
1.591913163E1,-2.601573886E0,-6.152352601E-1,8.358587466E-2,2.674637865E0
1.592909862E1,-2.513092942E0,-7.667067969E-1,-6.059615761E-1,2.696417044E0
1.593906662E1,-2.475472833E0,-7.984484071E-1,-1.290778118E0,2.903720675E0
1.594903362E1,-2.358527643E0,-4.970595235E-1,-1.665143176E0,2.929577207E0
1.595900162E1,-2.212490509E0,-9.938044667E-2,-1.568234932E0,2.713733872E0
1.596896962E1,-1.641560186E0,-2.939629197E-2,-1.034726790E0,1.940681199E0
1.597893663E1,-4.154873568E-1,-2.812200826E-1,-8.160420942E-1,9.579348506E-1
1.598890463E1,6.479118401E-1,-4.960514635E-1,-1.024901129E0,1.310068369E0
1.599887162E1,1.496224717E0,-7.537435198E-1,-1.024667825E0,1.963864010E0
1.600883962E1,2.317855580E0,-1.117889400E0,-6.301544309E-1,2.649382156E0
1.601880662E1,2.291446046E0,-1.151092229E0,-1.026706749E-1,2.566374791E0
1.602877462E1,1.946894186E0,-1.003697956E0,-3.916810030E-1,2.225133831E0
1.603874163E1,1.237145117E0,-9.185829610E-1,-4.735122013E-1,1.611997674E0
1.604870962E1,6.609090310E-1,-6.158322608E-1,-4.576791108E-1,1.012679757E0
1.605867662E1,5.917066491E-1,-3.714367729E-1,-3.376977539E-1,7.759650816E-1
1.606864462E1,6.458471882E-1,-3.754462087E-1,7.369479775E-2,7.506726113E-1
1.607861162E1,8.528245890E-1,-4.757926154E-1,5.969399436E-1,1.144563536E0
1.608857962E1,1.382400479E0,-9.022265446E-1,4.622551417E-1,1.714270585E0
1.609854763E1,1.909495395E0,-1.220661816E0,6.440251958E-1,2.356046770E0
1.610851462E1,2.347350690E0,-1.391975294E0,1.216562260E0,2.987921387E0
1.611848262E1,3.152619290E0,-1.629786817E0,1.094862991E0,3.714019174E0
1.612844962E1,3.791946248E0,-1.853766167E0,1.016284818E0,4.341444481E0
1.613841762E1,3.187274567E0,-1.951174933E0,1.636358503E0,4.079641153E0
