"Time (s)","Linear Acceleration x (m/s^2)","Linear Acceleration y (m/s^2)","Linear Acceleration z (m/s^2)","Absolute acceleration (m/s^2)"
1.456991668E-2,2.846769565E-1,-8.485947132E-2,1.958051258E-1,3.557832862E-1
2.453691667E-2,3.116723818E-1,6.721900642E-2,3.451143622E-2,3.207009629E-1
3.450291668E-2,3.889316422E-1,-1.082679221E-1,-1.281417310E-1,4.235682572E-1
4.446991667E-2,3.258431089E-1,3.832615972E-2,3.544699073E-2,3.299986595E-1
5.443691666E-2,2.790048650E-1,8.698610365E-2,-1.509294999E-1,3.289224998E-1
6.440291667E-2,3.092694685E-1,1.359407473E-1,-1.597751677E-2,3.382052216E-1
7.436991666E-2,2.756225431E-1,4.535334349E-2,-4.637075901E-2,2.831518309E-1
8.433691668E-2,3.675308329E-1,-6.727484733E-2,-1.184295058E-2,3.738249238E-1
9.430291667E-2,4.431248063E-1,-1.021163589E-1,6.827735245E-2,4.598359942E-1
1.042699167E-1,3.252519554E-1,1.487940967E-2,1.119426048E-1,3.442983852E-1
1.142369167E-1,1.983051029E-1,1.463043523E-1,9.982600451E-2,2.658855177E-1
1.242029167E-1,2.548380303E-1,1.433959472E-1,1.657492679E-1,3.361214650E-1
1.341699167E-1,3.104237089E-1,1.658173880E-1,1.759041274E-1,3.934470069E-1
1.441369167E-1,2.983047697E-1,2.372373265E-1,1.011527377E-1,3.943338193E-1
1.541029167E-1,2.867725986E-1,3.176105216E-1,1.002481735E-1,4.395050205E-1
1.640699167E-1,3.358713761E-1,3.229703718E-1,2.002560264E-1,5.071705024E-1
1.740369167E-1,4.272753435E-1,2.262308201E-1,1.992438734E-1,5.229175119E-1
1.840029167E-1,3.887880930E-1,2.000382176E-1,1.903327167E-1,4.768626771E-1
1.939699167E-1,3.106339163E-1,1.872719917E-1,2.366485119E-2,3.634890012E-1
2.039369167E-1,2.586167935E-1,9.931700438E-2,-1.140154427E-1,2.995764250E-1
2.139039167E-1,2.331518769E-1,-9.533885121E-4,-1.348964345E-1,2.693654668E-1
2.238655417E-1,2.179116940E-1,-7.409620911E-2,-2.220871907E-1,3.198413277E-1
2.338325417E-1,1.017131934E-1,-1.318781018E-2,-1.889422488E-1,2.149852679E-1
2.437995417E-1,1.458713660E-1,2.347013891E-2,-2.104079622E-1,2.571007845E-1
2.537655417E-1,2.950607345E-1,-1.086599779E-1,-4.459677225E-1,5.456693480E-1
2.637325417E-1,1.912755802E-1,-6.901088566E-2,-3.102807444E-1,3.709757274E-1
2.736995417E-1,4.874969870E-2,6.851343378E-2,-1.221571058E-1,1.483003110E-1
2.836655417E-1,6.534555852E-2,2.740107581E-2,-2.394674546E-1,2.497309007E-1
2.936325417E-1,-6.114111811E-2,6.013349667E-2,-2.184584087E-1,2.346877715E-1
3.035995417E-1,-1.283849752E-1,-5.853706062E-2,8.902385831E-3,1.413808396E-1
3.135655417E-1,-1.220901552E-1,-2.677476592E-1,8.399174452E-2,3.060219407E-1
3.235325417E-1,-1.188176148E-1,-4.191520992E-1,2.779304391E-1,5.167701973E-1
3.334995417E-1,-3.767160778E-1,-1.672379690E-1,7.535493922E-1,8.589064140E-1
3.434655417E-1,-6.409774809E-1,2.254632269E-1,1.399476103E0,1.555705358E0
3.534325417E-1,-7.001017481E-1,4.136492845E-1,1.697725031E0,1.882423563E0
3.633995417E-1,-6.426233259E-1,2.255923042E-1,1.613344447E0,1.751210133E0
3.733655417E-1,-4.314780298E-1,-3.898028773E-1,1.368551933E0,1.486961320E0
3.833325417E-1,-1.122210784E-1,-8.380673862E-1,4.928822726E-1,9.787152031E-1
3.932995417E-1,-9.437990785E-3,-8.735022439E-1,-5.902758354E-1,1.054286872E0
4.032665417E-1,-8.197343186E-2,-5.959590366E-1,-9.959521490E-1,1.163532337E0
4.132325417E-1,-1.020247038E-1,-2.436533301E-1,-1.222121866E0,1.250343089E0
4.231995417E-1,-5.393296301E-2,-1.108449362E-1,-1.618846677E0,1.623533162E0
4.331665417E-1,-1.356521141E-1,-1.796077538E-1,-2.010181525E0,2.022743237E0
4.431325417E-1,-1.730210846E-1,-2.215738052E-1,-2.243224059E0,2.260770980E0
4.530995417E-1,-2.022641064E-1,-2.583421205E-1,-2.372373850E0,2.394954927E0
4.630665417E-1,-3.768033475E-1,-1.808070177E-1,-2.569622653E0,2.603388661E0
4.730325417E-1,-5.249578319E-1,1.395291835E-2,-2.572442765E0,2.625497513E0
4.829995417E-1,-8.364757740E-1,1.414103790E-1,-2.527022179E0,2.665619948E0
4.929665417E-1,-1.029740504E0,4.529560223E-2,-2.518621484E0,2.721373068E0
5.029325417E-1,-6.623603830E-1,-4.283281347E-1,-2.204942338E0,2.341784999E0
5.128995417E-1,-8.564158027E-1,-6.950941926E-1,-2.304732674E0,2.555072732E0
5.228665417E-1,-1.583352908E0,-5.259007685E-1,-1.330338625E0,2.133864782E0
5.328335417E-1,-1.294354860E0,-1.122587637E0,-4.746009529E-2,1.714004074E0
5.427995417E-1,-1.359279126E0,-1.194392761E0,-1.217325979E-1,1.813569033E0
5.527665417E-1,-1.061321535E0,-6.708500285E-1,3.841111976E-1,1.313005930E0
5.627335417E-1,-8.563718024E-1,4.710443839E-2,2.098064591E0,2.266598006E0
5.726995417E-1,-1.723469445E0,-1.895848578E-1,1.426008428E0,2.244947523E0
5.826665417E-1,-3.016519498E0,-5.246988733E-1,9.514063060E-1,3.206224064E0
5.926335417E-1,-4.581250779E0,-1.723711520E0,6.533567673E-1,4.938209713E0
6.025995417E-1,-4.873646937E0,-1.001174297E0,1.958010328E-1,4.979269272E0
6.125665417E-1,-4.308716151E0,-4.192950636E-2,8.932171547E-1,4.400526086E0
6.225335417E-1,-3.646670128E0,-5.523452398E-1,2.177606020E0,4.283136265E0
6.324995417E-1,-2.543102022E0,-1.203264157E0,1.857129486E0,3.371074376E0
6.424665417E-1,3.150200589E0,9.162684868E-1,-5.040366551E0,6.014034142E0
6.524335417E-1,5.708695114E0,2.594173942E0,-6.647347473E0,9.138170866E0
6.624005417E-1,1.117162298E0,1.193538483E0,8.738143390E-1,1.853682068E0
6.723665417E-1,2.473019634E0,1.169060284E0,2.698718065E-1,2.748701302E0
6.823335417E-1,3.622566736E0,1.400748749E0,-1.091313220E0,4.034358853E0
6.923005417E-1,4.007276981E0,1.463590530E0,-2.250650023E0,4.823462612E0
7.022665417E-1,2.049494256E0,1.227162604E0,-1.146627295E-1,2.391548098E0
7.122335417E-1,1.111889791E0,1.078017236E0,1.202430198E0,1.960678058E0
7.222005417E-1,1.517121204E0,1.000839252E0,9.983395672E-1,2.073648439E0
7.321665417E-1,2.308220538E0,7.509337865E-1,1.748102303E0,2.991261484E0
7.421335417E-1,2.772239785E0,4.525452554E-1,3.613640084E0,4.576953713E0
7.521005417E-1,3.225441975E0,3.558805481E-1,3.728057815E0,4.942523847E0
7.620675417E-1,2.373363637E0,2.547778040E-1,3.320668852E0,4.089573121E0
7.720335417E-1,-2.435192644E-2,2.928270981E-1,1.835923389E0,1.859288954E0
7.820005417E-1,-2.318080552E0,7.538142711E-1,5.276457238E-1,2.494021534E0
7.919675417E-1,-3.240871900E0,1.305932054E0,9.646268606E-2,3.495427621E0
8.019335417E-1,-2.759383512E0,1.671108506E0,2.244332106E0,3.929863561E0
8.119005417E-1,-1.520154886E0,2.140615657E0,1.547338153E0,3.047517289E0
8.218675417E-1,-1.607599850E-1,1.577145212E0,-1.118926696E0,1.940419476E0
8.318335417E-1,2.768874420E0,1.864694613E-1,-1.168401741E0,3.011079382E0
8.418005417E-1,3.419019020E0,-7.364060868E-1,-1.237170845E0,3.709794695E0
8.517675417E-1,3.767694336E-1,-4.883031718E-1,-3.767501378E-1,7.227280679E-1
8.617345417E-1,-3.777916000E-1,-9.260267588E-1,5.682429421E-1,1.150283483E0
8.717005417E-1,-3.156558705E-1,-1.104497229E0,1.160576413E0,1.632939181E0
8.816675417E-1,-4.387684844E-1,-3.596036164E-1,1.196808100E0,1.324455425E0
8.916345417E-1,8.440572739E-2,4.643370429E-1,1.144627547E-1,4.856283954E-1
9.016005417E-1,6.580420681E-1,1.228646043E0,-5.937303704E-1,1.514960796E0
9.115675417E-1,1.235316400E0,1.632540564E0,-5.144204915E-1,2.110882219E0
9.215345417E-1,1.242904332E0,1.611911441E0,3.388777220E-1,2.063469840E0
9.315005417E-1,5.309761517E-2,9.951167281E-1,1.111106045E0,1.492525813E0
9.414675417E-1,-3.643201268E-1,2.661982933E-1,6.189844948E-1,7.659846545E-1
9.514345417E-1,-3.573055145E-1,2.182100482E-1,-6.140786809E-1,7.432196729E-1
9.614015417E-1,-2.683364008E-1,2.789073627E-1,-8.465131044E-1,9.307943795E-1
9.713675417E-1,-3.546258818E-1,1.142559095E-1,5.833147252E-1,6.921488261E-1
9.813345417E-1,7.770655780E-1,-4.759348489E-1,-7.569097871E-1,1.184591625E0
9.913015417E-1,1.667584096E0,-6.556917067E-1,-1.530158449E0,2.356300747E0
1.001267542E0,2.104820172E0,-7.786032495E-1,-2.181808999E0,3.129981067E0
1.011234542E0,1.874531384E0,-1.195327804E0,-3.147829835E0,3.853765580E0
1.021201542E0,1.538280378E0,-1.164605656E0,-3.537215806E0,4.029206934E0
1.031167542E0,1.260927497E0,-9.035138091E-1,-3.444389504E0,3.777577849E0
1.041134542E0,8.261473985E-1,-2.847656880E-1,-2.601826193E0,2.744651264E0
1.051101542E0,2.351011194E-1,3.934379451E-1,-1.673067908E0,1.734710978E0
1.061068542E0,3.604386354E-1,4.241511762E-1,-1.443617903E0,1.547208092E0
1.071034542E0,5.157392944E-1,-1.972031951E-1,-1.186871341E0,1.309022422E0
1.081001542E0,8.200138155E-1,-1.045237453E0,6.894218087E-2,1.330299596E0
1.090968542E0,8.870764820E-1,-1.643447229E0,1.739321539E0,2.552070315E0
1.100934542E0,7.181294449E-1,-1.713091514E0,3.202878447E0,3.702542746E0
1.110901542E0,1.682459925E-1,-1.411181059E0,3.560625719E0,3.833770234E0
1.120868542E0,-2.846176073E-2,-1.164205779E0,4.195435703E0,4.354063149E0
1.130835542E0,-1.444922271E-1,-1.287578668E0,4.742389517E0,4.916197226E0
1.140801542E0,-6.440800135E-1,-7.394150640E-1,5.829640092E0,5.911537643E0
1.150768542E0,-1.763810409E-1,3.322222750E-1,7.214106392E0,7.223905657E0
1.160735542E0,1.987274180E-1,8.786653353E-1,7.909033939E0,7.960173566E0
1.170701542E0,1.294541678E0,1.903117544E0,8.957110507E0,9.248109168E0
1.180668542E0,2.083639803E0,2.077973266E0,8.356538309E0,8.859529346E0
1.190635542E0,2.748511784E0,1.457110353E0,7.868944259E0,8.461546629E0
1.200601542E0,3.270948223E0,9.641162525E-1,9.514058967E0,1.010672749E1
1.210568542E0,3.342730105E0,7.358848076E-1,1.062435342E1,1.116209015E1
1.220536292E0,2.994545954E0,-6.780197382E-2,1.126757287E1,1.165890651E1
1.230503292E0,2.475512887E0,9.710529506E-1,1.098085582E1,1.129824333E1
1.240469292E0,-7.953426585E-1,4.140910709E0,5.442128738E0,6.884509906E0
1.250436292E0,-1.428896076E0,3.045463216E0,7.146621922E0,7.898784406E0
1.260403292E0,-1.582929424E0,2.572417330E0,6.461824091E0,7.132893316E0
1.270369292E0,-1.999315059E0,2.929675482E0,3.595837651E0,5.050772966E0
1.280336292E0,-1.838114486E0,2.266383711E0,1.579991344E0,3.318362945E0
1.290303292E0,-1.579748392E0,1.308076374E0,-8.678197736E-1,2.227056341E0
1.300270292E0,-5.517021192E-1,-5.376969413E-1,-3.209168297E0,3.300341556E0
1.310236292E0,1.613068458E-1,-2.940395767E0,-5.820357052E0,6.522921384E0
1.320203292E0,4.837854668E-1,-5.022745382E0,-7.093847292E0,8.705440193E0
1.330170292E0,1.543966941E0,-5.367284963E0,-7.195185971E0,9.108363352E0
1.340136292E0,2.254601571E0,-4.434332469E0,-7.986903648E0,9.409418823E0
1.350103292E0,1.884177390E0,-3.976724694E0,-9.764584091E0,1.071034856E1
1.360070292E0,1.882470149E0,-3.444935634E0,-1.012663959E1,1.086094401E1
1.370036292E0,1.993423697E0,-2.903931946E0,-9.849789133E0,1.046063596E1
1.380003292E0,2.594194992E0,-2.030579244E0,-1.025060992E1,1.076699138E1
1.389970292E0,2.942007844E0,-1.084926818E0,-1.116944489E1,1.160124888E1
1.399937292E0,3.287050286E0,-7.781015584E-1,-1.201838459E1,1.248405823E1
1.409903292E0,3.011123103E0,-3.901452318E-1,-1.353212582E1,1.386857977E1
1.419870292E0,2.103270952E0,1.416729189E-1,-1.427785046E1,1.443263087E1
1.429837292E0,2.084890084E0,7.772496922E-1,-1.360198367E1,1.378277343E1
1.439803292E0,2.064730346E0,7.706220925E-1,-1.187381686E1,1.207660949E1
1.449770292E0,2.087468998E0,-6.650225472E-1,-1.091065298E1,1.112843790E1
1.459737292E0,2.782539363E0,-2.530800065E0,-1.170583571E1,1.229528625E1
1.469704292E0,3.281307151E0,-3.897394935E0,-1.208156142E1,1.311185686E1
1.479670292E0,2.945160371E0,-4.864063058E0,-1.182868338E1,1.312443635E1
1.489637292E0,3.608753859E0,-4.585851953E0,-1.124373026E1,1.266785746E1
1.499604292E0,3.615528443E0,-3.504976306E0,-9.987906214E0,1.118548950E1
1.509570292E0,3.140980699E0,-2.877980833E0,-9.140010243E0,1.008406271E1
1.519537292E0,2.772162310E0,-2.445715768E0,-6.470954518E0,7.452493668E0
1.529504292E0,3.494026810E0,-1.119270366E0,-4.854190620E0,6.084747823E0
1.539471292E0,2.935318922E0,-3.567839429E-1,-9.844044828E-1,3.116479447E0
1.549437292E0,1.916446419E0,3.645861751E-1,7.080395772E0,7.344228635E0
1.559404292E0,7.939422503E-1,-1.750874175E-1,1.544643054E1,1.546781227E1
1.569371292E0,-2.551100720E-1,-8.629211225E-1,2.642435340E1,2.643967032E1
1.579337292E0,-4.685427989E0,7.758103269E-1,3.290177260E1,3.324277000E1
1.589304292E0,-8.249635420E0,7.322009155E0,3.023732039E1,3.218639226E1
1.599271292E0,-9.500853031E0,1.238756610E1,2.501668535E1,2.948817641E1
1.609238292E0,-9.883083179E0,9.086149201E0,2.467551435E1,2.809118098E1
1.619204292E0,-7.659564822E0,5.501140008E0,2.751278920E1,2.908410295E1
1.629171292E0,-7.469603988E0,1.600913559E0,2.721323869E1,2.826514227E1
1.639138292E0,-6.987467728E0,-2.592181796E-1,2.361932477E1,2.463258821E1
1.649104292E0,-5.476671749E0,-8.215428624E-1,1.703482434E1,1.791240091E1
1.659071292E0,-4.295070796E0,-1.009489623E0,1.022582825E1,1.113706720E1
1.669038292E0,-2.095819407E0,-4.110937589E-1,5.950857550E0,6.322512368E0
1.679005292E0,-2.807889967E-1,3.133843003E-1,1.666243622E0,1.718551713E0
1.688971292E0,5.853242670E-1,-3.769096206E-1,-2.124129140E0,2.235305340E0
1.698938292E0,1.292175164E0,-7.041971380E-1,-3.786703050E0,4.062601414E0
1.708905292E0,1.328012456E0,-4.661849092E-1,-4.941159182E0,5.137703720E0
1.718871292E0,9.212808663E-1,-7.336559951E-2,-6.570245503E0,6.634927800E0
1.728838292E0,7.124403964E-1,1.238302866E-1,-8.160109870E0,8.192087546E0
1.738805292E0,1.317496970E0,2.880474378E-1,-1.035737072E1,1.044480243E1
1.748772292E0,2.108004566E0,2.558510605E-1,-1.229069060E1,1.247277909E1
1.758738292E0,2.133413349E0,9.394299658E-1,-1.309928568E1,1.330508423E1
1.768705292E0,2.728616633E0,2.163435439E0,-1.477278335E1,1.517764572E1
1.778672292E0,3.044303128E0,3.287056133E0,-1.602644627E1,1.664089840E1
1.788638292E0,2.728304392E0,4.006933749E0,-1.687952814E1,1.756182317E1
1.798605292E0,2.169263651E0,4.044399784E0,-1.703097921E1,1.763851261E1
1.808572292E0,1.514727208E0,3.032428018E0,-1.672738242E1,1.706737650E1
1.818539292E0,1.209805071E0,1.112152989E0,-1.507328814E1,1.516260294E1
1.828505292E0,8.902758591E-1,-6.020211375E-1,-1.306415210E1,1.310828328E1
1.838472292E0,8.956077889E-1,-1.774855653E0,-1.022698366E1,1.041841738E1
1.848439292E0,6.269255984E-1,-2.171428437E0,-6.804373280E0,7.169911638E0
1.858405292E0,5.643288159E-1,-2.423659632E0,-4.593358024E0,5.224129684E0
1.868372292E0,3.132439671E-1,-2.798710423E0,-7.666760990E0,8.167626699E0
1.878339292E0,2.232832387E-1,-2.475933301E0,-7.753122026E0,8.141928658E0
1.888306292E0,7.145698062E-1,-2.355331116E0,-6.574942571E0,7.020545882E0
1.898272292E0,1.197859429E0,-2.489488901E0,-6.309402966E0,6.887741865E0
1.908239292E0,2.193284890E0,-2.681946496E0,-6.402606415E0,7.279883551E0
1.918206292E0,2.911131915E0,-2.123275008E0,-5.481509151E0,6.559720143E0
1.928172292E0,2.581758549E0,-1.176521185E0,-7.232223989E0,7.768831517E0
1.938139292E0,2.465242399E-1,-7.728108515E-1,-8.889150658E0,8.926085942E0
1.948106292E0,-1.030050260E0,-1.234810616E-1,-9.518057293E0,9.574427698E0
1.958073292E0,-1.046444026E-1,6.685716610E-1,-6.547441946E0,6.582319846E0
1.968039292E0,1.965738008E0,-5.505548224E-2,-3.708225229E0,4.197391020E0
1.978006292E0,2.329152986E0,5.956663835E-1,-2.370765865E0,3.376433453E0
1.987973292E0,2.232808560E0,1.332370094E0,2.635776297E0,3.702426342E0
1.997940292E0,3.476388976E0,6.224108170E-1,9.348570485E0,9.993420118E0
2.007906292E0,3.604930364E0,-2.652358416E-1,1.332269843E1,1.380435317E1
2.017873292E0,2.451530970E0,1.773011441E0,1.203970939E1,1.241403141E1
2.027840292E0,1.160436664E0,5.104640315E0,1.246634563E1,1.352086312E1
2.037806292E0,1.963609914E0,5.181367478E0,1.732342302E1,1.818799929E1
2.047773292E0,3.167741944E0,3.522246642E0,2.079101720E1,2.132386472E1
2.057740292E0,3.683111438E0,2.504994548E0,2.331282308E1,2.373453238E1
2.067707292E0,2.459763704E0,1.618062712E0,2.505246563E1,2.522488055E1
2.077673292E0,3.734631255E-1,8.566841899E-1,2.603519079E1,2.605195851E1
2.087640292E0,-1.319243241E0,1.246059197E-1,2.574166524E1,2.577574943E1
2.097607292E0,-2.554794407E0,4.859157537E-1,2.388289854E1,2.402406983E1
2.107573292E0,-2.948215249E0,1.622626025E0,2.104457352E1,2.131194414E1
2.117540292E0,-2.930304642E0,2.453878773E0,1.749158076E1,1.790429009E1
2.127507292E0,-2.845447218E0,3.169575630E0,1.241099121E1,1.312156555E1
2.137474292E0,-2.361739519E0,3.259143280E0,6.849326674E0,7.944375643E0
2.147440292E0,-1.653515549E0,2.244252292E0,1.970512260E0,3.413751688E0
2.157407292E0,-8.518491273E-1,1.173253176E0,-1.882364314E0,2.376018805E0
2.167374292E0,-7.259151587E-1,2.484797680E-1,-4.330358450E0,4.397806194E0
2.177341292E0,-1.502301290E0,-6.069392306E-1,-6.162970560E0,6.372400687E0
2.187307292E0,-2.535696231E0,-1.493529443E0,-9.043148777E0,9.509938242E0
2.197274292E0,-3.444073754E0,-2.437445174E0,-1.179922978E1,1.253094595E1
2.207241292E0,-4.268885502E0,-3.481048330E0,-1.322022949E1,1.432185562E1
2.217207292E0,-5.638222132E0,-4.325432171E0,-1.429235156E1,1.596152328E1
2.227174208E0,-7.549624888E0,-4.195083408E0,-1.438425575E1,1.677803249E1
2.237141208E0,-8.610551298E0,-3.406743960E0,-1.320582195E1,1.612889430E1
2.247108208E0,-8.706763138E0,-3.492186399E0,-1.266045214E1,1.575722497E1
2.257074208E0,-8.057733895E0,-3.740253645E0,-1.222208872E1,1.510946808E1
2.267041208E0,-6.851667899E0,-3.511227856E0,-1.184168291E1,1.412443019E1
2.277008208E0,-5.511351001E0,-3.167196398E0,-1.143391212E1,1.308206670E1
2.286975208E0,-4.657653130E0,-2.818352682E0,-1.099742566E1,1.227111306E1
2.296941208E0,-4.016972834E0,-2.233161878E0,-1.095033335E1,1.187572664E1
2.306908208E0,-3.488283090E0,-1.850626212E0,-1.086909682E1,1.156417753E1
2.316875208E0,-3.113428034E0,-1.733419359E0,-1.045479586E1,1.104540326E1
2.326841208E0,-2.840516553E0,-1.497157641E0,-9.850186744E0,1.036031825E1
2.336808208E0,-2.555931982E0,-1.354498735E0,-9.529354114E0,9.958717033E0
2.346775208E0,-2.324042519E0,-8.093408927E-1,-8.563709253E0,8.910293064E0
2.356742208E0,-2.274082447E0,-2.472590156E-1,-7.564686146E0,7.902978204E0
2.366708208E0,-1.851637781E0,-5.646983600E-1,-6.599583907E0,6.877641635E0
2.376675208E0,-1.136468635E0,-6.642539307E-1,-5.897296470E0,6.042425001E0
2.386642208E0,-6.944814044E-1,-6.640342216E-1,-4.752465439E0,4.848625952E0
2.396608208E0,-8.974131167E-2,-7.308268198E-1,-3.187199723E0,3.271147111E0
2.406575208E0,5.152063572E-1,-7.777682671E-1,-2.268603898E0,2.452942053E0
2.416542208E0,6.745312893E-1,-1.115937014E0,-2.504990455E0,2.824054720E0
2.426509208E0,8.474638617E-1,-1.134565951E-1,-1.651717969E0,1.859903128E0
2.436475208E0,1.403788424E0,9.240451375E-1,-9.555063736E-1,1.933254713E0
2.446442208E0,2.168537719E0,-5.163345775E-1,3.508602456E0,4.156855595E0
2.456409208E0,2.995159619E0,-7.091589390E-1,5.969638807E0,6.716433207E0
2.466376208E0,2.955904337E0,5.975319377E-1,6.380886347E0,7.057628883E0
2.476342208E0,2.507117964E0,1.561061130E0,8.299419783E0,8.809252016E0
2.486309208E0,2.063027929E0,1.942041143E0,1.076848728E1,1.113498659E1
2.496276208E0,2.140944855E0,2.519460852E0,1.328710058E1,1.369227409E1
2.506243208E0,2.044974358E0,2.487667786E0,1.599899359E1,1.631987154E1
2.516209208E0,1.945940213E0,2.009182236E0,1.779628501E1,1.801475109E1
2.526176208E0,1.861360238E0,1.774994232E0,1.886365798E1,1.903819473E1
2.536143208E0,2.039270546E0,1.859985850E0,1.939189544E1,1.958733725E1
2.546109208E0,2.313476893E0,2.052881402E0,1.878942173E1,1.904229152E1
2.556076208E0,2.826168070E0,2.368371284E0,1.756874997E1,1.795152874E1
2.566043208E0,3.078747906E0,3.344752949E0,1.536782993E1,1.602611175E1
2.576010208E0,3.637019591E0,3.470951650E0,1.389136120E1,1.477312875E1
2.585976208E0,3.794657602E0,3.844066574E0,1.184883522E1,1.302194956E1
2.595943208E0,3.434973732E0,4.045619805E0,1.040494484E1,1.168028087E1
2.605910208E0,3.027448237E0,4.013773237E0,9.238756852E0,1.051810090E1
2.615877208E0,2.455728248E0,3.562965482E0,8.113612227E0,9.195435151E0
2.625843208E0,1.504210114E0,2.876435122E0,6.843286500E0,7.574107023E0
2.635810208E0,4.720332943E-1,2.236415268E0,5.612237105E0,6.059832837E0
2.645777208E0,-3.894859582E-1,1.489606546E0,4.355620176E0,4.619746107E0
2.655743208E0,-8.417233577E-1,6.468093476E-1,2.912348428E0,3.099779655E0
2.665710208E0,-7.206912562E-1,-6.215463062E-1,1.651402220E0,1.906002358E0
2.675677208E0,-1.476368012E0,-5.036695084E-1,-2.234602339E0,2.725214321E0
2.685644208E0,-3.803621091E-1,-1.970445309E0,-2.869179019E0,3.501359492E0
2.695610208E0,-1.063083155E0,-2.439249771E0,-5.486574594E0,6.097752538E0
2.705577208E0,-2.089006962E0,-1.317939604E0,-7.714426907E0,8.100203540E0
2.715544208E0,-2.550121312E0,-1.778316035E0,-8.839841089E0,9.370609217E0
2.725511208E0,-3.068973408E0,-1.948550118E0,-9.981470768E0,1.062286233E1
2.735477208E0,-3.792145053E0,-1.364672744E0,-1.090849535E1,1.162918599E1
2.745444208E0,-4.324217704E0,-7.879669806E-1,-1.162368818E1,1.242698184E1
2.755411208E0,-4.473475192E0,-8.123741359E-1,-1.152163907E1,1.238628672E1
2.765378208E0,-3.556725041E0,-3.048329521E0,-1.097412684E1,1.193206042E1
2.775344208E0,-3.520178774E0,-2.545628896E0,-1.179914324E1,1.257345085E1
2.785311208E0,-4.142879467E0,-1.666216725E0,-1.251753450E1,1.329016171E1
2.795278208E0,-3.420895391E0,-2.668385341E0,-1.171465799E1,1.249223829E1
2.805244208E0,-3.491053208E0,-2.485390588E0,-1.268781009E1,1.339198058E1
2.815211208E0,-3.352504895E0,-2.465805632E0,-1.218132895E1,1.287261673E1
2.825178208E0,-3.201220177E0,-2.372215975E0,-1.187761522E1,1.252808694E1
2.835145208E0,-2.816909589E0,-2.650184129E0,-1.103059691E1,1.168899156E1
2.845111208E0,-2.549095418E0,-2.840720328E0,-1.026138868E1,1.094822712E1
2.855078208E0,-2.437742797E0,-3.059495656E0,-9.444424476E0,1.022253674E1
2.865045208E0,-2.595586337E0,-2.980559122E0,-8.261991756E0,9.158673970E0
2.875012208E0,-2.706373824E0,-2.804626343E0,-7.431766655E0,8.391754514E0
2.884978208E0,-2.486363857E0,-2.991693975E0,-6.798072320E0,7.832370353E0
2.894945208E0,-2.319462688E0,-2.783210916E0,-5.721266627E0,6.771931924E0
2.904912208E0,-2.300541098E0,-2.480911328E0,-5.015629320E0,6.050119655E0
2.914879208E0,-1.982419822E0,-2.163349631E0,-3.965522599E0,4.933096336E0
2.924845208E0,-1.540742494E0,-1.922088251E0,-3.015485711E0,3.893772560E0
2.934812208E0,-8.904838738E-1,-1.416105876E0,-2.035465470E0,2.634660711E0
2.944779208E0,-1.928569597E-1,-5.949389899E-1,-5.298840380E-1,8.197092791E-1
2.954746208E0,2.371885023E-1,8.230704474E-1,1.515716411E0,1.741005338E0
2.964712208E0,9.126141232E-1,2.009273452E0,4.587795568E0,5.090963810E0
2.974679208E0,1.755089725E0,2.155317896E0,7.634698368E0,8.124921805E0
2.984646208E0,2.470285476E0,2.468785080E0,1.029633748E1,1.087252389E1
2.994612208E0,2.956271835E0,3.427830189E0,1.278140180E1,1.355926970E1
3.004579208E0,3.657777207E0,4.210915914E0,1.482136787E1,1.583616407E1
3.014546208E0,4.532439100E0,4.127727577E0,1.607782225E1,1.720690290E1
3.024513208E0,5.077218043E0,3.793565049E0,1.728838300E1,1.841351312E1
3.034479208E0,4.779600028E0,4.390641781E0,1.809833697E1,1.922685915E1
3.044446208E0,4.443885065E0,4.910772956E0,1.815894453E1,1.932902150E1
3.054413208E0,4.325050347E0,4.557227786E0,1.730457394E1,1.840985238E1
3.064380208E0,3.943216348E0,4.625240259E0,1.614416826E1,1.725039048E1
3.074346208E0,3.487377064E0,4.358860703E0,1.504193186E1,1.604435039E1
3.084313208E0,3.004173687E0,4.056006214E0,1.358620203E1,1.449348584E1
3.094280208E0,2.365548103E0,3.660578023E0,1.159118585E1,1.238350672E1
3.104247208E0,1.588670366E0,3.078376023E0,9.195440678E0,9.826311706E0
3.114213208E0,8.783367218E-1,2.447377839E0,6.453125188E0,6.957295335E0
3.124180208E0,2.948563743E-1,1.713518068E0,3.357994553E0,3.781429872E0
3.134147208E0,-1.764686760E-1,8.356530708E-1,3.339262998E-1,9.170409053E-1
3.144114208E0,-3.216478778E-1,1.274687165E-1,-2.351651317E0,2.376966460E0
3.154080208E0,-4.629831201E-1,-7.899600041E-1,-4.566753193E0,4.657641560E0
3.164047208E0,-8.293560581E-1,-2.042237423E0,-6.032694011E0,6.422769044E0
3.174014208E0,-1.742026315E0,-2.379553646E0,-7.185733947E0,7.767348556E0
3.183981208E0,-2.795627478E0,-2.072924488E0,-8.045830134E0,8.766295196E0
3.193947208E0,-3.576371101E0,-1.783927462E0,-8.493625111E0,9.386932138E0
3.203914208E0,-4.117765383E0,-1.620780644E0,-9.068142700E0,1.009029899E1
3.213881208E0,-4.378466124E0,-1.377695078E0,-9.848009241E0,1.086518731E1
3.223847167E0,-4.362401776E0,-1.199891629E0,-1.066596454E1,1.158590043E1
3.233814167E0,-3.898332828E0,-1.067287595E0,-1.161803392E1,1.230100865E1
3.243781167E0,-3.231697327E0,-1.351835475E0,-1.198780599E1,1.248914806E1
3.253748167E0,-2.630496553E0,-1.470876161E0,-1.188644451E1,1.226256710E1
3.263714167E0,-2.310924876E0,-8.863966700E-1,-1.146455855E1,1.172869027E1
3.273681167E0,-2.112772239E0,-9.657547885E-1,-1.084907595E1,1.109499607E1
3.283648167E0,-1.964990734E0,-1.037388297E0,-1.017269928E1,1.041254886E1
3.293615167E0,-1.978095075E0,-1.296974997E0,-9.611473580E0,9.898253818E0
3.303581167E0,-2.141295103E0,-1.250957994E0,-9.060072958E0,9.393346721E0
3.313548167E0,-2.307043494E0,-1.017287762E0,-8.545986927E0,8.910174893E0
3.323515167E0,-2.308865486E0,-8.861214124E-1,-8.136588276E0,8.504124868E0
3.333482167E0,-2.230318669E0,-8.041837947E-1,-7.655603918E0,8.014318704E0
3.343448167E0,-2.076950880E0,-7.571156090E-1,-7.338060932E0,7.663816754E0
3.353415167E0,-1.781608895E0,-5.725744133E-1,-7.004861441E0,7.250521051E0
3.363382167E0,-1.425234549E0,-5.262157872E-1,-6.820396990E0,6.987561211E0
3.373349167E0,-1.124213017E0,-3.500026345E-1,-6.368345824E0,6.476278660E0
3.383315167E0,-7.567367095E-1,-1.842229611E-1,-5.783238927E0,5.835446944E0
3.393282167E0,-3.670303112E-1,5.359908700E-2,-4.829116589E0,4.843340907E0
3.403249167E0,-1.603926337E-1,3.877227303E-1,-3.279483989E0,3.306216863E0
3.413216167E0,8.479442105E-2,1.062966211E0,-1.540957671E0,1.873936446E0
3.423182167E0,3.571124102E-1,2.403571961E0,1.298453173E0,2.755116711E0
3.433149167E0,7.568404976E-1,3.540147893E0,5.000493218E0,6.173361083E0
3.443116167E0,8.508273263E-1,3.727645294E0,8.953217431E0,9.735468604E0
3.453083167E0,1.121646893E0,3.985861261E0,1.263824442E1,1.329926328E1
3.463049167E0,1.299949768E0,3.681412237E0,1.587875028E1,1.635167808E1
3.473016167E0,1.726074087E0,4.572330267E0,1.929024276E1,1.989972366E1
3.482983167E0,2.004545686E0,4.726939420E0,2.216915915E1,2.275596136E1
3.492949167E0,2.430247836E0,4.247161927E0,2.362539418E1,2.412682613E1
3.502916167E0,2.671527928E0,4.445443348E0,2.140042103E1,2.201992390E1
3.512883167E0,3.065910636E0,4.473840936E0,2.052491977E1,2.122939925E1
3.522850167E0,4.128876262E0,3.101666068E0,1.973192974E1,2.039649487E1
3.532816167E0,3.772824683E0,4.175250530E0,1.738577188E1,1.827380604E1
3.542783167E0,3.617650397E0,3.823734636E0,1.516604486E1,1.605357461E1
3.552750167E0,3.407358502E0,2.140069234E0,1.335540074E1,1.394835894E1
3.562717167E0,2.045219357E0,2.250546527E0,1.212172361E1,1.249736232E1
3.572683167E0,8.413410960E-1,2.568531270E0,9.418969792E0,9.799091778E0
3.582650167E0,-5.583593935E-2,2.198370067E0,6.794437691E0,7.141451683E0
3.592617167E0,-4.267204428E-1,1.639467468E0,3.491484733E0,3.880774350E0
3.602584167E0,-3.686214848E-1,9.674589595E-1,3.872669399E-1,1.105366148E0
3.612550167E0,-8.644175711E-1,1.606598514E-1,-1.821649166E0,2.022729593E0
3.622517167E0,-1.126665632E0,1.121203601E-3,-4.956121622E0,5.082570042E0
3.632484167E0,-1.744994215E0,-1.180441158E0,-7.443683866E0,7.736076243E0
3.642451167E0,-1.686387865E0,-1.929376951E0,-8.174764162E0,8.566981298E0
3.652417167E0,-2.114984241E0,-2.235727344E0,-9.878194907E0,1.034651486E1
3.662384167E0,-3.327901273E0,-1.605185388E0,-1.084310945E1,1.145532931E1
3.672351167E0,-4.095773420E0,-1.255610332E0,-1.130714682E1,1.209146337E1
3.682318167E0,-4.501080482E0,-1.255646000E0,-1.180648501E1,1.269761634E1
3.692284167E0,-4.625600740E0,-1.043451274E0,-1.224569159E1,1.313171487E1
3.702251167E0,-4.678705153E0,-1.201283851E0,-1.242278271E1,1.332887448E1
3.712218167E0,-4.731607252E0,-1.440318758E0,-1.269622190E1,1.362558901E1
3.722185167E0,-4.766167220E0,-1.446663864E0,-1.259493058E1,1.354405636E1
3.732151167E0,-4.400541410E0,-1.518592072E0,-1.261394807E1,1.344554099E1
3.742118167E0,-3.893641607E0,-1.396756270E0,-1.232413901E1,1.299983751E1
3.752085167E0,-3.687719629E0,-1.274178019E0,-1.200779061E1,1.262576101E1
3.762052167E0,-3.117881859E0,-1.429308012E0,-1.110472090E1,1.162234636E1
3.772018167E0,-2.990920388E0,-1.449030378E0,-1.036282500E1,1.088271271E1
3.781985167E0,-3.332936018E0,-1.267084469E0,-1.040028811E1,1.099454221E1
3.791952167E0,-3.630207293E0,-9.675433056E-1,-9.284299645E0,1.001562604E1
3.801919167E0,-3.493433317E0,-1.544079500E0,-8.318230861E0,9.153208317E0
3.811885167E0,-3.367963471E0,-1.818194923E0,-8.204404868E0,9.053246377E0
3.821852167E0,-2.915816411E0,-1.748262078E0,-7.865182745E0,8.568518264E0
3.831819167E0,-2.214147317E0,-1.271368724E0,-7.673877636E0,8.087473323E0
3.841786167E0,-1.917595250E0,-1.030831083E0,-7.150679889E0,7.474757999E0
3.851752167E0,-1.077056246E0,-9.540302441E-1,-6.902459738E0,7.050827915E0
3.861719167E0,-4.979839683E-1,-2.018260038E-1,-6.737236134E0,6.758629484E0
3.871686167E0,-7.025400370E-1,5.481288126E-1,-6.158601521E0,6.222730943E0
3.881653167E0,-9.132333434E-1,7.666059324E-1,-4.897376985E0,5.040434617E0
3.891619167E0,-8.607589683E-1,4.831004655E-1,-3.796157413E0,3.922384882E0
3.901586167E0,-6.500908050E-1,6.241227356E-1,-2.665789470E0,2.813997289E0
3.911553167E0,-6.912724525E-2,1.674812717E0,-5.028546989E-1,1.750039731E0
3.921520167E0,1.075361431E-1,2.970979336E0,4.548168987E0,5.433610528E0
3.931486167E0,1.387032935E0,3.746011691E0,8.307425206E0,9.217905267E0
3.941453167E0,2.992048901E0,3.679345247E0,1.045847025E1,1.148344626E1
3.951420167E0,5.035767131E0,1.965228716E0,1.361577842E1,1.464959032E1
3.961387167E0,7.655985741E0,1.476705542E-1,1.703508980E1,1.867699678E1
3.971353167E0,8.642211632E0,-2.759074487E-1,1.954784419E1,2.137480197E1
3.981320167E0,8.407172858E0,3.519560431E-1,2.010207486E1,2.179215093E1
3.991287167E0,8.053054368E0,2.894604175E-1,2.040259602E1,2.193630316E1
4.001254167E0,6.705517328E0,3.266279514E-1,2.050673727E1,2.157769501E1
4.011220167E0,6.073547922E0,-2.690523192E-1,2.037634436E1,2.126395502E1
4.021187167E0,5.818118738E0,-5.621782100E-1,2.070103557E1,2.151044917E1
4.031154167E0,6.101134501E0,-1.305770379E0,1.982659850E1,2.078516025E1
4.041121167E0,6.002491972E0,-1.684810725E0,1.844858987E1,1.947354526E1
4.051087167E0,5.498587114E0,-1.068536853E0,1.585267638E1,1.681319659E1
4.061054167E0,4.199516182E0,-7.703461039E-1,1.221568134E1,1.294033384E1
4.071021167E0,3.163885997E0,-5.918630621E-1,8.432871956E0,9.026284169E0
4.080988167E0,1.982276857E0,-4.057840486E-1,4.297329283E0,4.749854861E0
4.090954167E0,6.597922128E-1,-3.648878914E-1,2.832601762E-1,8.054224139E-1
4.100921167E0,-5.379242519E-1,-2.060528098E-1,-2.662893344E0,2.724485497E0
4.110888167E0,-1.903073106E0,-7.156249362E-1,-5.178644430E0,5.563466943E0
4.120855167E0,-2.698189184E0,-1.073204685E0,-7.102124026E0,7.672819485E0
4.130821167E0,-3.566087311E0,-1.031440801E0,-7.909182458E0,8.737048471E0
4.140788167E0,-4.696043024E0,-1.387128976E0,-8.764699105E0,1.003976580E1
4.150755167E0,-5.782631401E0,-1.756274956E0,-9.559764313E0,1.130983737E1
4.160722167E0,-6.393892894E0,-1.423836334E0,-1.015276612E1,1.208254262E1
4.170688167E0,-6.561241960E0,-9.311259694E-1,-1.089118526E1,1.274891399E1
4.180655167E0,-6.103810771E0,-3.044284125E-1,-1.141070569E1,1.294424146E1
4.190622167E0,-5.626666864E0,1.115403163E-1,-1.130898519E1,1.263190276E1
4.200589167E0,-5.181663347E0,4.595893961E-1,-1.106322321E1,1.222521023E1
4.210555167E0,-4.873684652E0,9.105743220E-1,-1.075469604E1,1.184252653E1
4.220522167E0,-4.606685875E0,9.961855991E-1,-1.029799459E1,1.132530940E1
4.230493417E0,-4.300445264E0,3.896223445E-1,-9.644051927E0,1.056661595E1
4.240460417E0,-3.802682320E0,-2.691743799E-1,-9.071387320E0,9.839863596E0
4.250426417E0,-3.393634502E0,-2.228347573E-1,-8.358177284E0,9.023610030E0
4.260393417E0,-3.165242551E0,6.897844823E-1,-7.476331210E0,8.148011499E0
4.270360417E0,-3.268516951E0,1.012437350E0,-6.992606846E0,7.784907382E0
4.280327417E0,-3.292598124E0,9.981403233E-1,-6.760861225E0,7.585956170E0
4.290293417E0,-3.284515226E0,1.023609187E0,-6.529553559E0,7.380439399E0
4.300260417E0,-3.241207238E0,8.361626557E-1,-6.408034385E0,7.229626341E0
4.310227417E0,-3.135234348E0,3.693156955E-1,-6.070081692E0,6.841928109E0
4.320194417E0,-2.953024583E0,1.636549415E-1,-5.762477803E0,6.477135753E0
4.330160417E0,-2.729486406E0,2.391481966E-2,-5.349011829E0,6.005214027E0
4.340127417E0,-2.280426237E0,-4.669147879E-2,-5.769696191E0,6.204185527E0
4.350094417E0,-1.567892870E0,-6.914961085E-2,-6.361222746E0,6.551963411E0
4.360061417E0,-1.152069591E0,2.193553716E-2,-5.956883690E0,6.067306553E0
4.370027417E0,-9.662728518E-1,6.380597202E-1,-4.335152582E0,4.487131750E0
4.379994417E0,-4.776795119E-1,9.152029780E-1,-2.772527468E0,2.958493328E0
4.389961417E0,1.189151171E-1,4.012331606E-1,-2.847401065E-1,5.061677415E-1
4.399928417E0,6.489663854E-2,5.498354687E-1,2.883541535E0,2.936212254E0
4.409894417E0,4.084508175E-1,8.057261440E-1,5.147684593E0,5.226345124E0
4.419861417E0,8.419521300E-1,8.814727297E-1,7.549851176E0,7.647622528E0
4.429828417E0,1.080736557E0,1.177284247E0,9.821059424E0,9.950236073E0
4.439795417E0,1.985888098E0,1.366470909E0,1.243359070E1,1.266511634E1
4.449761417E0,2.613301939E0,1.639259307E0,1.521193849E1,1.552158467E1
4.459728417E0,3.499809121E0,2.006377034E0,1.744836983E1,1.790865217E1
4.469695417E0,4.716316490E0,1.864044403E0,1.895460557E1,1.962129902E1
4.479662417E0,5.994519879E0,-4.600659442E-1,2.027303342E1,2.114572801E1
4.489628417E0,7.507538384E0,-2.392167552E0,2.064980694E1,2.210203893E1
4.499595417E0,7.201833086E0,-2.108561220E0,2.112268764E1,2.241607378E1
4.509562417E0,6.231671251E0,-1.281186784E0,1.977017053E1,2.076860152E1
4.519529417E0,4.852835527E0,-8.706577197E-2,1.732463106E1,1.799167681E1
4.529495417E0,3.161564945E0,1.180004225E0,1.418222276E1,1.457818045E1
4.539462417E0,1.694797769E0,1.604909254E0,1.131051599E1,1.154884605E1
4.549429417E0,7.115636064E-1,1.310513640E0,8.393748820E0,8.525185513E0
4.559396417E0,1.289651652E-1,9.910736708E-1,5.318810960E0,5.411895145E0
4.569362417E0,-3.642511296E-1,7.668263724E-1,2.008760067E0,2.180783936E0
4.579329417E0,-1.047489946E0,4.982165413E-1,-1.248348382E0,1.704062379E0
4.589296417E0,-1.951955975E0,2.839776295E-1,-4.205073668E0,4.644719580E0
4.599263417E0,-2.902961308E0,2.269216686E-2,-6.470211922E0,7.091638852E0
4.609229417E0,-3.953489614E0,-1.653376240E-1,-7.819851036E0,8.763988069E0
4.619196417E0,-5.040865903E0,-5.059392513E-1,-8.627308248E0,1.000483639E1
4.629163417E0,-5.961815232E0,-6.913986062E-1,-9.141405389E0,1.093556425E1
4.639130417E0,-6.816270025E0,-5.757580760E-1,-9.537312759E0,1.173683812E1
4.649096417E0,-7.238389878E0,-4.383417839E-1,-1.011889203E1,1.244903239E1
4.659063417E0,-7.310687191E0,-5.394696710E-1,-1.081682739E1,1.306678726E1
4.669030417E0,-7.321372393E0,-9.091142723E-1,-1.125029435E1,1.345355363E1
4.678997417E0,-7.159906211E0,-9.762432316E-1,-1.128262477E1,1.339831816E1
4.688963417E0,-6.530359890E0,-9.655510131E-1,-1.154301298E1,1.329733198E1
4.698930417E0,-5.786401101E0,-1.203541461E0,-1.192926718E1,1.331308999E1
4.708897417E0,-5.381528780E0,-1.354361618E0,-1.149576981E1,1.276510364E1
4.718864417E0,-5.222154731E0,-1.381539476E0,-1.053290998E1,1.183730307E1
4.728831417E0,-5.070952166E0,-1.439566660E0,-9.487655280E0,1.085368651E1
4.738797417E0,-4.636903116E0,-1.482991299E0,-8.435688559E0,9.739659910E0
4.748764417E0,-3.928858218E0,-1.732717693E0,-7.517596180E0,8.657510602E0
4.758731417E0,-3.326031334E0,-1.744739569E0,-6.957947475E0,7.906935795E0
4.768698417E0,-3.062105561E0,-1.388652906E0,-6.761370517E0,7.551223651E0
4.778664417E0,-3.055268704E0,-8.576684225E-1,-6.090134718E0,6.867314094E0
4.788631417E0,-3.051594021E0,-5.396395326E-1,-5.429839645E0,6.251927340E0
4.798598417E0,-2.783908489E0,-4.489427859E-1,-5.249522039E0,5.958957773E0
4.808565417E0,-2.265151117E0,-9.741432041E-2,-5.364218098E0,5.823678815E0
4.818531417E0,-1.588398471E0,1.575277904E-1,-5.347185159E0,5.580341730E0
4.828498417E0,-8.764780381E-1,4.728058577E-1,-4.565189647E0,4.672549159E0
4.838465417E0,-1.407775640E-1,9.727392876E-1,-3.259268410E0,3.404243031E0
4.848432417E0,4.519353908E-1,1.476639469E0,-2.144709585E0,2.642818367E0
4.858398417E0,6.820166025E-1,1.534480126E0,-8.984433961E-1,1.904462244E0
4.868365417E0,9.985015351E-1,1.821769326E0,5.305020887E-1,2.144127155E0
4.878332417E0,1.912892335E0,3.300312356E0,3.897087371E0,5.453302551E0
4.888299417E0,2.508328046E0,4.905184187E0,6.771052921E0,8.729243905E0
4.898265417E0,2.915173802E0,5.614754916E0,8.923792487E0,1.093882002E1
4.908232417E0,4.082674488E0,4.416817427E0,1.110786904E1,1.263175608E1
4.918199417E0,4.776470599E0,4.010361679E0,1.337220213E1,1.475511647E1
4.928166417E0,5.493022903E0,3.863688368E0,1.524408414E1,1.665783568E1
4.938132417E0,6.584064227E0,3.030248468E0,1.705649412E1,1.853257400E1
4.948099417E0,7.420057606E0,2.551619076E0,1.947053581E1,2.099213614E1
4.958066417E0,7.346268668E0,1.637810367E0,2.141667629E1,2.270075130E1
4.968033417E0,6.848586416E0,1.454036472E0,2.240772555E1,2.347602016E1
4.977999417E0,6.281793584E0,8.325287573E-1,2.266321379E1,2.353243069E1
4.987966417E0,5.562041683E0,2.527308400E-1,2.162177791E1,2.232714627E1
4.997933417E0,4.942193554E0,3.763028258E-1,1.934184912E1,1.996682269E1
5.007900417E0,3.351210029E0,1.084748989E0,1.694308386E1,1.730535697E1
5.017866417E0,2.290624074E0,1.451363856E0,1.409176399E1,1.435030411E1
5.027833417E0,1.516623022E0,1.193070998E0,1.082890773E1,1.099949119E1
5.037800417E0,1.148174468E0,-8.000701323E-2,7.995534723E0,8.077950312E0
5.047767417E0,-1.920478512E-1,4.996704514E-1,3.986453292E0,4.022233557E0
5.057734417E0,-1.615748676E0,1.996046612E0,2.251610720E-1,2.577895143E0
5.067700417E0,-2.113972672E0,1.268619802E0,-2.119563634E0,3.251280772E0
5.077667417E0,-2.606524139E0,-4.388256410E-1,-4.550152947E0,5.262169502E0
5.087634417E0,-2.996002496E0,-3.521031006E-1,-7.403150967E0,7.994163608E0
5.097601417E0,-3.067993415E0,-6.217725934E-1,-8.795203444E0,9.335672894E0
5.107567417E0,-3.398987043E0,-9.496231976E-1,-9.846103048E0,1.045947620E1
5.117534417E0,-3.723035934E0,-1.159558851E0,-1.051100163E1,1.121100926E1
5.127501417E0,-3.760261356E0,-1.426019830E0,-1.097869703E1,1.169208649E1
5.137468417E0,-3.634496518E0,-1.655995207E0,-1.131114398E1,1.199557682E1
5.147434417E0,-3.589976695E0,-1.770155661E0,-1.167941566E1,1.234625991E1
5.157401417E0,-3.404959682E0,-1.988578694E0,-1.201349515E1,1.264406032E1
5.167368417E0,-2.952022371E0,-2.288901630E0,-1.237155759E1,1.292319403E1
5.177335417E0,-2.706174142E0,-2.322274029E0,-1.277396765E1,1.326237477E1
5.187301417E0,-2.746305630E0,-2.367383544E0,-1.267292542E1,1.318141640E1
5.197268417E0,-2.860105310E0,-2.438036035E0,-1.254262841E1,1.309357665E1
5.207235417E0,-2.858378627E0,-2.438194202E0,-1.245379049E1,1.300815194E1
5.217202417E0,-2.737054750E0,-2.624309907E0,-1.205568281E1,1.263795708E1
5.227164292E0,-2.347029532E0,-2.806442781E0,-1.165488542E1,1.221560571E1
5.237131292E0,-1.995797813E0,-2.846604674E0,-1.123351868E1,1.175917978E1
5.247098292E0,-1.683867569E0,-2.952866124E0,-1.064638573E1,1.117588285E1
5.257065292E0,-1.288723406E0,-3.232792510E0,-1.011591346E1,1.069782504E1
5.267032292E0,-1.098618292E0,-3.356516377E0,-9.536704649E0,1.016965584E1
5.276998292E0,-8.979993001E-1,-3.565146494E0,-8.897951303E0,9.627575481E0
5.286965292E0,-9.294014794E-1,-3.313208682E0,-8.123058404E0,8.821860162E0
5.296932292E0,-8.933583650E-1,-3.472150329E0,-7.616423480E0,8.418065318E0
5.306899292E0,-6.712080243E-1,-3.422072143E0,-7.351028886E0,8.136259807E0
5.316865292E0,-6.372552896E-1,-2.614419926E0,-6.603961717E0,7.131170747E0
5.326832292E0,-6.367477512E-1,-2.196516208E0,-5.870348992E0,6.300089558E0
5.336799292E0,-3.790115485E-1,-1.404921322E0,-4.815124787E0,5.030196854E0
5.346766292E0,-2.238109499E-2,2.593251836E-1,-2.579256526E0,2.592356976E0
5.356732292E0,5.432207329E-1,1.026136646E0,-1.849193645E-1,1.175687183E0
5.366699292E0,7.436160692E-1,2.001283232E0,2.939457289E0,3.632975170E0
5.376666292E0,5.880066772E-1,2.139921592E0,6.412477099E0,6.785637687E0
5.386633292E0,6.803880798E-1,2.480853149E0,9.347177678E0,9.694704268E0
5.396599292E0,1.207435487E0,2.864576968E0,1.147097879E1,1.188474047E1
5.406566292E0,2.300474440E0,3.323706188E0,1.384515300E1,1.442315732E1
5.416533292E0,3.238416947E0,2.967614848E0,1.640983183E1,1.698754434E1
5.426500292E0,3.443011023E0,2.377576410E0,1.761131536E1,1.810153649E1
5.436466292E0,4.391406305E0,2.391387241E0,1.833444169E1,1.900407678E1
5.446433292E0,4.856126048E0,1.897797163E0,1.979484344E1,2.046996388E1
5.456400292E0,4.332723356E0,1.460788544E0,2.057691555E1,2.107880093E1
5.466367292E0,3.751366279E0,1.586393461E0,2.048287829E1,2.088390999E1
5.476334292E0,2.807204088E0,1.930901759E0,1.987393522E1,2.016388052E1
5.486300292E0,1.990224393E0,2.126097166E0,1.853594025E1,1.876332495E1
5.496267292E0,1.705538812E0,2.697689540E0,1.642364997E1,1.673088969E1
5.506234292E0,1.533519867E0,2.487129550E0,1.351238678E1,1.382469143E1
5.516201292E0,1.159562798E0,2.033205083E0,1.033597108E1,1.059767932E1
5.526167292E0,8.935808516E-1,1.001168012E0,7.397993138E0,7.518718414E0
5.536134292E0,4.281440936E-1,2.967901947E-1,4.359778715E0,4.390792893E0
5.546101292E0,-2.876463188E-1,-7.992412895E-2,1.398213104E0,1.429730099E0
5.556068292E0,-1.205532876E0,-1.801816580E-1,-1.545879273E0,1.968633453E0
5.566034292E0,-2.234327520E0,2.850225270E-1,-4.178797451E0,4.747189215E0
5.576001292E0,-2.865294714E0,1.652876303E-1,-6.409106764E0,7.022384446E0
5.585968292E0,-3.266120762E0,2.965298474E-2,-8.209822313E0,8.835700682E0
5.595935292E0,-3.390164180E0,1.809941286E-1,-9.233931729E0,9.838265458E0
5.605902292E0,-3.705234963E0,5.301326908E-1,-1.012194077E1,1.079182523E1
5.615868292E0,-4.111848001E0,7.541406919E-1,-1.086897519E1,1.164519832E1
5.625835292E0,-3.579797862E0,5.399744318E-1,-1.115576007E1,1.172849129E1
5.635802292E0,-3.399598662E0,1.056917851E-1,-1.156230060E1,1.205218806E1
5.645769292E0,-3.598693724E0,2.273075849E-2,-1.189867338E1,1.243099117E1
5.655735292E0,-3.576038395E0,6.985478505E-2,-1.210095079E1,1.261847615E1
5.665702292E0,-3.622928386E0,-5.268882170E-2,-1.227811207E1,1.280157889E1
5.675669292E0,-3.555234878E0,-2.608815663E-1,-1.224586350E1,1.275417293E1
5.685636292E0,-3.272807346E0,-3.253892188E-1,-1.171612448E1,1.216900648E1
5.695602292E0,-3.191736578E0,-3.646284212E-1,-1.174022085E1,1.217180849E1
5.705569292E0,-2.870725608E0,-3.532001844E-1,-1.126190107E1,1.162739143E1
5.715536292E0,-2.435523340E0,-2.691216087E-1,-1.020041157E1,1.049059563E1
5.725503292E0,-2.225618531E0,-4.697869402E-1,-9.668069365E0,9.932051292E0
5.735469292E0,-1.938706476E0,-7.716865781E-1,-8.882542135E0,9.124343141E0
5.745436292E0,-1.649500705E0,-1.251505001E0,-7.949669164E0,8.214886314E0
5.755403292E0,-1.504964697E0,-1.532063179E0,-7.395239684E0,7.700760112E0
5.765370292E0,-1.580771801E0,-1.574514257E0,-7.041481968E0,7.386501400E0
5.775337292E0,-1.668974711E0,-1.535318324E0,-6.666141593E0,7.041315409E0
5.785303292E0,-1.786892439E0,-8.202822027E-1,-6.061358816E0,6.372277315E0
5.795270292E0,-1.079818763E0,-5.479457948E-1,-4.658624645E0,4.813422560E0
5.805237292E0,7.483032703E-2,-6.505375323E-1,-3.285257530E0,3.349882937E0
5.815204292E0,1.787194155E-1,-1.370414856E-1,-2.198419184E0,2.209924865E0
5.825170292E0,2.669844514E-1,3.199099392E-1,-1.693642505E0,1.744146784E0
5.835137292E0,9.633890051E-1,7.376894045E-1,4.869268835E-2,1.214361977E0
5.845104292E0,1.263517375E0,1.756786295E0,2.720806507E0,3.476429532E0
5.855071292E0,1.089781688E0,2.911668981E0,5.914605398E0,6.681915698E0
5.865037292E0,1.146605806E0,3.806458452E0,1.009127680E1,1.084609138E1
5.875004292E0,1.483741789E0,3.752896495E0,1.420655536E1,1.476861324E1
5.884971292E0,1.790095397E0,4.216290675E0,1.803960754E1,1.861206567E1
5.894938292E0,2.185313235E0,4.364003913E0,2.076136012E1,2.132731109E1
5.904904292E0,2.784630035E0,3.127233311E0,2.178371771E1,2.218251812E1
5.914871292E0,2.963101967E0,3.820991122E0,2.212533544E1,2.264752558E1
5.924838292E0,3.153753942E0,3.943507832E0,1.975270373E1,2.038790628E1
5.934805292E0,3.407661973E0,4.999167654E0,1.970743926E1,2.061521282E1
5.944772292E0,3.548759964E0,5.593364632E0,1.898495496E1,2.010741008E1
5.954738292E0,3.259981771E0,5.037175140E0,1.636922409E1,1.743422243E1
5.964705292E0,2.729571483E0,4.666285374E0,1.512506056E1,1.606213674E1
5.974672292E0,1.689414091E0,3.882855248E0,1.358693411E1,1.423149547E1
5.984639292E0,9.977953376E-1,3.851547502E0,1.200431268E1,1.264648318E1
5.994605292E0,5.909530891E-1,2.549340124E0,9.470251043E0,9.825172540E0
6.004572292E0,7.736486113E-1,7.767318481E-1,7.070636185E0,7.155119887E0
6.014539292E0,5.754933433E-1,-3.344928950E-2,4.204517013E0,4.243851406E0
6.024506292E0,9.605038427E-1,-1.127001700E0,9.766042972E-1,1.773825363E0
6.034472292E0,-7.905567124E-2,-1.427765224E0,-2.091736150E0,2.533796254E0
6.044439292E0,-1.156779085E0,-1.442045587E0,-4.976274635E0,5.308572555E0
6.054406292E0,-2.204606269E0,-1.185494030E0,-7.267184492E0,7.686199017E0
6.064373292E0,-2.247473961E0,-2.480397651E0,-8.958193996E0,9.563093191E0
6.074340292E0,-3.124909335E0,-2.070619515E0,-9.700417331E0,1.039954903E1
6.084306292E0,-3.319909591E0,-2.133977313E0,-1.029847406E1,1.102879081E1
6.094273292E0,-3.591576493E0,-2.476308693E0,-1.035025583E1,1.123206669E1
6.104240292E0,-3.579025152E0,-2.807240049E0,-1.047778477E1,1.142252124E1
6.114207292E0,-3.309441029E0,-3.005405403E0,-1.071964900E1,1.161446237E1
6.124173292E0,-2.848085774E0,-3.417340284E0,-1.113541293E1,1.199113124E1
6.134140292E0,-2.520678535E0,-3.591878794E0,-1.150355597E1,1.231207592E1
6.144107292E0,-2.274933363E0,-3.516431586E0,-1.151666192E1,1.225455485E1
6.154074292E0,-2.024623855E0,-3.677671189E0,-1.137657315E1,1.212644976E1
6.164041292E0,-1.751570725E0,-4.040915135E0,-1.126286703E1,1.209335226E1
6.174007292E0,-1.510153224E0,-4.496294829E0,-1.088105320E1,1.186990096E1
6.183974292E0,-1.383025108E0,-4.913030566E0,-1.046661893E1,1.164477306E1
6.193941292E0,-1.214875119E0,-5.244609793E0,-1.016257424E1,1.150042471E1
6.203908292E0,-1.166115480E0,-5.509944745E0,-9.940741403E0,1.142530770E1
6.213874292E0,-8.781409863E-1,-5.575165758E0,-9.370435563E0,1.093886043E1
6.223841292E0,-7.074487746E-1,-5.715752703E0,-9.154290898E0,1.081532961E1
6.233808208E0,-6.550179613E-1,-5.731693382E0,-9.139762321E0,1.080817343E1
6.243775208E0,-6.727230379E-1,-5.593100338E0,-9.161194121E0,1.075466436E1
6.253741208E0,-7.694765498E-1,-5.385440567E0,-9.174267910E0,1.066593906E1
6.263708208E0,-9.356021592E-1,-5.036412663E0,-8.850870692E0,1.022637355E1
6.273675208E0,-1.069896038E0,-4.761614578E0,-8.077686934E0,9.437514351E0
6.283642208E0,-8.085155582E-1,-4.514337874E0,-6.956050639E0,8.331841593E0
6.293609208E0,-3.739007896E-1,-4.222909138E0,-5.285406402E0,6.775565232E0
6.303575208E0,7.889370337E-2,-3.644882050E0,-3.542313994E0,5.083244810E0
6.313542208E0,9.057159436E-1,-2.516032629E0,-1.787565746E0,3.216540511E0
6.323509208E0,1.748296430E0,-1.020047355E0,-2.727726102E-1,2.042410809E0
6.333476208E0,2.391803563E0,6.542692253E-1,8.237639272E-1,2.612925470E0
6.343442208E0,2.445718253E0,2.741549212E0,2.255080458E0,4.310802446E0
6.353409208E0,1.689962268E0,5.043459728E0,4.505840993E0,6.971015819E0
6.363376208E0,5.426322106E-1,6.858409739E0,7.548133264E0,1.021305780E1
6.373343208E0,-5.091362165E-1,7.818845315E0,1.095850074E1,1.347153667E1
6.383309208E0,-1.183849135E0,8.126197774E0,1.429705857E1,1.648764606E1
6.393276208E0,-1.624193663E0,8.385452206E0,1.681019653E1,1.885567610E1
6.403243208E0,-1.685134514E0,8.743904067E0,1.833002237E1,2.037854893E1
6.413210208E0,-1.396002856E0,8.973457568E0,1.922154851E1,2.125887325E1
6.423177208E0,-6.443999293E-1,8.427405394E0,2.035015819E1,2.203554745E1
6.433143208E0,6.103996128E-1,7.244158741E0,2.140118117E1,2.260223394E1
6.443110208E0,2.055002187E0,5.504229677E0,2.205489754E1,2.282406808E1
6.453077208E0,3.297330860E0,4.320684232E0,2.124793968E1,2.193206884E1
6.463044208E0,3.743134861E0,3.469616438E0,1.957412742E1,2.022858772E1
6.473011208E0,3.090389128E0,3.003275555E0,1.727703355E1,1.780634879E1
6.482977208E0,1.735576105E0,2.402740195E0,1.411166792E1,1.441958932E1
6.492944208E0,1.265820593E-1,1.548568700E0,1.057762949E1,1.069113341E1
6.502911208E0,-9.927157883E-1,7.292699987E-1,7.002997348E0,7.110505694E0
6.512878208E0,-1.404591101E0,-7.362784714E-2,3.304601873E0,3.591474733E0
6.522844208E0,-1.522771077E0,-6.343708581E-1,-3.434894210E-1,1.685005377E0
6.532811208E0,-1.652551782E0,-8.999385291E-1,-3.821529066E0,4.259683222E0
6.542778208E0,-1.591924196E0,-1.218758255E0,-6.683893155E0,6.978110206E0
6.552745208E0,-1.688869423E0,-1.492207680E0,-8.564491026E0,8.856041453E0
6.562712208E0,-2.107899900E0,-1.778376262E0,-9.617095678E0,1.000471856E1
6.572678208E0,-2.387151372E0,-2.299179574E0,-1.001559746E1,1.054973511E1
6.582645208E0,-2.599782884E0,-2.454823391E0,-9.876098095E0,1.050344432E1
6.592612208E0,-2.705932360E0,-2.772272237E0,-9.565126795E0,1.031984563E1
6.602579208E0,-2.611514153E0,-2.972178600E0,-9.696069342E0,1.047223054E1
6.612545208E0,-2.315210300E0,-3.060867998E0,-9.695202200E0,1.042717878E1
6.622512208E0,-2.242740494E0,-3.028909748E0,-9.901466825E0,1.059449029E1
6.632479208E0,-2.248195946E0,-2.886979113E0,-1.048724791E1,1.110726798E1
6.642446208E0,-2.109639593E0,-2.925732120E0,-1.069432471E1,1.128623359E1
6.652412208E0,-1.873184478E0,-3.143365194E0,-1.076584902E1,1.137071106E1
6.662379208E0,-1.625756332E0,-3.177514687E0,-1.083813932E1,1.141073824E1
6.672346208E0,-1.364189033E0,-3.347436236E0,-1.077211957E1,1.136243377E1
6.682313208E0,-1.217171905E0,-3.584095858E0,-1.036797874E1,1.103731098E1
6.692280208E0,-1.229391417E0,-3.857142118E0,-9.938262184E0,1.073116973E1
6.702246208E0,-1.511380993E0,-3.705378512E0,-9.510834228E0,1.031843351E1
6.712213208E0,-1.647016954E0,-3.700296697E0,-9.005845295E0,9.874720754E0
6.722180208E0,-1.574143251E0,-3.585507668E0,-8.473362755E0,9.334434562E0
6.732147208E0,-1.334375542E0,-3.383094311E0,-8.032282720E0,8.817224671E0
6.742113208E0,-9.730278477E-1,-3.137794552E0,-7.667626378E0,8.341764328E0
6.752080208E0,-6.382001996E-1,-2.913513193E0,-7.601507818E0,8.165707546E0
6.762047208E0,-2.709831429E-1,-2.571610122E0,-7.171231098E0,7.623199194E0
6.772014208E0,1.016359370E-1,-2.276799063E0,-6.666783618E0,7.045576459E0
6.781981208E0,5.111300439E-1,-1.866173959E0,-6.160661495E0,6.457368599E0
6.791947208E0,8.726454075E-1,-1.134322414E0,-4.873137937E0,5.078943857E0
6.801914208E0,1.014310140E0,-2.312553325E-1,-3.566398675E0,3.715037496E0
6.811881208E0,9.758538801E-1,1.061402665E0,-1.467040095E0,2.056957232E0
6.821848208E0,4.138440699E-1,2.226600425E0,8.288884270E-1,2.411653456E0
6.831814208E0,-5.080777243E-1,3.842334336E0,4.140878842E0,5.671732867E0
6.841781208E0,-3.922964224E-1,5.082817336E0,7.533951427E0,9.096667118E0
6.851748208E0,-4.919852366E-1,6.148458356E0,1.046364504E1,1.214633513E1
6.861715208E0,-7.980051881E-1,7.521643038E0,1.334133234E1,1.533633186E1
6.871682208E0,-6.466117117E-1,7.493397478E0,1.515429663E1,1.691809147E1
6.881648208E0,-5.491963680E-1,7.728808719E0,1.658788422E1,1.830830423E1
6.891615208E0,-4.682423982E-1,7.980541878E0,1.783793356E1,1.954738277E1
6.901582208E0,6.950197868E-2,7.030863424E0,1.952592415E1,2.075330299E1
6.911549208E0,1.238477405E0,5.346839004E0,2.121736108E1,2.191572324E1
6.921515208E0,2.565097201E0,3.677571494E0,2.185338846E1,2.230862709E1
6.931482208E0,3.336999249E0,2.960513113E0,2.071332408E1,2.118825137E1
6.941449208E0,3.488651172E0,1.616389385E0,1.801154207E1,1.841735729E1
6.951416208E0,3.070301895E0,1.817914841E0,1.552391785E1,1.592870344E1
6.961383208E0,2.369208460E0,1.201405473E0,1.230983204E1,1.259319216E1
6.971349208E0,1.744119179E0,8.799325731E-1,9.143947758E0,9.350294843E0
6.981316208E0,8.967704346E-1,3.712613565E-1,5.691987864E0,5.774145656E0
6.991283208E0,3.089500643E-1,5.475098848E-2,2.611274124E0,2.630057103E0
7.001250208E0,3.014241131E-1,-1.521927908E-1,-2.909065801E-1,4.456969597E-1
7.011217208E0,3.205357374E-1,-3.306723243E-1,-3.153795750E0,3.187242535E0
7.021183208E0,4.453075719E-1,-6.612145481E-1,-5.358650964E0,5.417623433E0
7.031150208E0,3.954856400E-1,-9.130742991E-1,-7.061895182E0,7.131653184E0
7.041117208E0,-1.916913173E-1,-1.063726349E0,-8.168368478E0,8.239569339E0
7.051084208E0,-9.874712013E-1,-1.169686667E0,-8.835518242E0,8.967142738E0
7.061050208E0,-1.520037065E0,-1.248501872E0,-9.045950178E0,9.257347580E0
7.071017208E0,-1.847061750E0,-1.321565755E0,-9.327236334E0,9.599766184E0
7.080984208E0,-2.210407730E0,-1.444708701E0,-1.032857435E1,1.066079424E1
7.090951208E0,-2.018258576E0,-1.301512729E0,-1.028699246E1,1.056359394E1
7.100918208E0,-1.848598690E0,-1.753396664E0,-1.080351678E1,1.109989603E1
7.110884208E0,-1.718703379E0,-1.669597000E0,-1.100259577E1,1.126048885E1
7.120851208E0,-1.547963805E0,-1.763569650E0,-1.109174242E1,1.133724480E1
7.130818208E0,-1.322357175E0,-2.188939678E0,-1.104721002E1,1.133935336E1
7.140785208E0,-1.284589425E0,-2.264347125E0,-1.070658749E1,1.101855043E1
7.150751208E0,-1.264498246E0,-2.531855195E0,-1.019585074E1,1.058133351E1
7.160718208E0,-1.151980129E0,-2.767655276E0,-9.612219685E0,1.006885004E1
7.170685208E0,-1.052810547E0,-3.165381130E0,-9.413220810E0,9.986830016E0
7.180652208E0,-1.124932078E0,-3.011837340E0,-9.406247420E0,9.940529507E0
7.190619208E0,-1.092080521E0,-2.969646756E0,-9.084142436E0,9.619411911E0
7.200585208E0,-1.131336899E0,-3.013935029E0,-8.832912138E0,9.401279933E0
7.210552208E0,-1.118556932E0,-2.965399631E0,-8.603025931E0,9.168250637E0
7.220519208E0,-9.096792595E-1,-2.929311493E0,-8.339348080E0,8.885556177E0
7.230489708E0,-6.845279816E-1,-2.923302309E0,-8.206310475E0,8.738295404E0
7.240455708E0,-4.167639501E-1,-2.810834332E0,-7.513288536E0,8.032682395E0
7.250422708E0,-1.266275945E-1,-2.658889756E0,-6.856156222E0,7.354767666E0
7.260389708E0,3.635610120E-1,-2.090908476E0,-5.885337160E0,6.256298294E0
7.270356708E0,7.580547450E-1,-1.330165839E0,-4.873967072E0,5.108771201E0
7.280323708E0,1.007551782E0,-2.392581242E-1,-3.038858786E0,3.210462235E0
7.290289708E0,9.508377374E-1,7.209359622E-1,-5.537330765E-1,1.315470024E0
7.300256708E0,6.280681443E-1,1.752333055E0,2.460116583E0,3.085014479E0
7.310223708E0,-1.994874099E-1,3.097503435E0,6.339771066E0,7.058825676E0
7.320190708E0,-1.017463836E0,4.066022202E0,9.998771510E0,1.084173422E1
7.330156708E0,-1.450924730E0,4.601645283E0,1.231132425E1,1.322304907E1
7.340123708E0,-1.641030428E0,5.189812027E0,1.392916696E1,1.495489291E1
7.350090708E0,-1.816089048E0,5.655794184E0,1.500688131E1,1.613978544E1
7.360057708E0,-1.979791645E0,6.641887343E0,1.607558978E1,1.750596553E1
7.370024708E0,-1.875197674E0,7.102736814E0,1.763815642E1,1.910679980E1
7.379990708E0,-9.476863074E-1,6.263757262E0,1.942974330E1,2.043643044E1
7.389957708E0,5.036410032E-1,5.239767714E0,2.051044207E1,2.117515180E1
7.399924708E0,1.311449487E0,3.935353889E0,2.107891305E1,2.148319076E1
7.409891708E0,1.624208866E0,2.748205098E0,2.070181442E1,2.094649865E1
7.419858708E0,1.628133517E0,2.082292604E0,1.881942028E1,1.900414010E1
7.429824708E0,1.509050439E0,1.629411426E0,1.606083492E1,1.621365576E1
7.439791708E0,1.625001456E0,1.103834447E0,1.261636647E1,1.276839000E1
7.449758708E0,1.997169716E0,5.815614375E-1,8.990199900E0,9.227707994E0
7.459725708E0,1.991605359E0,2.071045777E-1,5.505658736E0,5.858469282E0
7.469691708E0,1.386050749E0,-7.880643368E-2,2.305102803E0,2.690882024E0
7.479658708E0,6.131244884E-1,-3.480063951E-1,-1.007105713E0,1.229346170E0
7.489625708E0,4.644552297E-1,-6.197610050E-1,-3.588713404E0,3.671333036E0
7.499592708E0,3.976686249E-1,-1.075281324E0,-6.102689275E0,6.209443345E0
7.509559708E0,2.142564534E-1,-1.240736184E0,-8.030916225E0,8.129018854E0
7.519525708E0,-2.228402390E-1,-1.742571714E0,-9.206336380E0,9.372451306E0
7.529492708E0,-8.740018154E-1,-2.270275617E0,-9.692811858E0,9.993429455E0
7.539459708E0,-1.465590862E0,-2.623989480E0,-9.832958508E0,1.028204019E1
7.549426708E0,-1.884694137E0,-2.891245826E0,-9.992779284E0,1.057199188E1
7.559392708E0,-2.143326280E0,-2.944895200E0,-1.029001431E1,1.091561495E1
7.569359708E0,-2.114524503E0,-3.007544315E0,-1.075936914E1,1.137016099E1
7.579326708E0,-1.937633658E0,-2.889792209E0,-1.124157615E1,1.176768276E1
7.589293708E0,-1.718233848E0,-2.452461993E0,-1.172804110E1,1.210429037E1
7.599260708E0,-1.575343392E0,-2.265054346E0,-1.210791248E1,1.241828179E1
7.609226708E0,-1.503423225E0,-2.093178366E0,-1.229570985E1,1.256288811E1
7.619193708E0,-1.385832794E0,-2.241966323E0,-1.224204644E1,1.252256549E1
7.629160708E0,-1.239973269E0,-2.463711451E0,-1.202329041E1,1.233559565E1
7.639127708E0,-1.051340338E0,-2.650376794E0,-1.169650824E1,1.203902482E1
7.649093708E0,-9.208461258E-1,-2.904726290E0,-1.125010139E1,1.165547827E1
7.659060708E0,-8.495060018E-1,-3.072934020E0,-1.072647621E1,1.119025808E1
7.669027708E0,-6.523729733E-1,-3.421487422E0,-1.021974598E1,1.079700766E1
7.678994708E0,-5.747495044E-1,-3.551206731E0,-9.777717522E0,1.041850115E1
7.688961708E0,-5.934043881E-1,-3.497183721E0,-9.403309779E0,1.005010734E1
7.698927708E0,-6.121662028E-1,-3.420992455E0,-9.110927362E0,9.751252957E0
7.708894708E0,-5.700357715E-1,-3.480284391E0,-8.917159991E0,9.589215949E0
7.718861708E0,-4.611340843E-1,-3.381537783E0,-8.771100637E0,9.411676195E0
7.728828708E0,-3.160670760E-1,-2.947362432E0,-8.231799073E0,8.749249093E0
7.738795708E0,-2.006764412E-1,-2.744038372E0,-7.529919187E0,8.016838565E0
7.748761708E0,-2.539884299E-3,-2.356144903E0,-6.497136011E0,6.911164996E0
7.758728708E0,4.384361433E-1,-1.972009439E0,-4.841568235E0,5.246125280E0
7.768695708E0,1.279885632E0,-1.306255113E0,-3.128172666E0,3.623516783E0
7.778662708E0,2.015470039E0,-4.946156797E-1,-1.071969461E0,2.335783096E0
7.788629708E0,2.102613725E0,4.568230784E-1,1.790675880E0,2.799319901E0
7.798595708E0,1.761293183E0,1.405303730E0,5.629210403E0,6.063418344E0
7.808562708E0,1.197181298E0,2.191852761E0,9.619713476E0,9.938629128E0
7.818529708E0,6.616210757E-1,2.803255171E0,1.405386702E1,1.434598063E1
7.828496708E0,4.778139248E-1,2.321116280E0,1.871088544E1,1.886035845E1
7.838462708E0,8.730099814E-1,2.106591878E0,2.243147226E1,2.254708016E1
7.848429708E0,1.498666076E0,2.469608076E0,2.521379733E1,2.537874188E1
7.858396708E0,2.708665348E0,1.737984865E0,2.730030840E1,2.748934882E1
7.868363708E0,4.484710033E0,1.447195668E0,2.811548979E1,2.850767906E1
7.878330708E0,6.231684700E0,1.382756282E0,2.770464804E1,2.843050180E1
7.888296708E0,7.508984401E0,3.536676693E-1,2.565017503E1,2.672903677E1
7.898263708E0,7.220407351E0,1.587900142E0,2.349161690E1,2.462745975E1
7.908230708E0,5.894315559E0,2.282946680E0,2.031975033E1,2.128020336E1
7.918197708E0,4.675420772E0,2.814594092E0,1.591649757E1,1.682606294E1
7.928164708E0,3.391321929E0,3.098660307E0,1.113965216E1,1.204967263E1
7.938130708E0,1.910027638E0,3.270997340E0,6.438986036E0,7.470486621E0
7.948097708E0,1.772871400E-1,3.319275461E0,2.225764858E0,4.000381171E0
7.958064708E0,-1.294569745E0,3.186645407E0,-1.330234544E0,3.687837268E0
7.968031708E0,-2.310687771E0,2.901429337E0,-4.484305698E0,5.819498927E0
7.977997708E0,-3.132189118E0,2.363462108E0,-6.859806054E0,7.902752742E0
7.987964708E0,-3.662183669E0,1.551766688E0,-8.488783616E0,9.374380852E0
7.997931708E0,-4.229770845E0,6.630046731E-1,-9.761202646E0,1.065887488E1
8.007898708E0,-4.954331789E0,2.141912569E-1,-1.065043083E1,1.174831725E1
8.017865708E0,-5.697260883E0,1.344565047E-1,-1.124295609E1,1.260479757E1
8.027831708E0,-6.134633199E0,1.850545813E-1,-1.171847506E1,1.322840230E1
8.037798708E0,-6.266935809E0,7.629505455E-2,-1.235632559E1,1.385493008E1
8.047765708E0,-6.314925077E0,1.467122687E-1,-1.291318985E1,1.437533566E1
8.057732708E0,-6.250931979E0,1.691293240E-1,-1.324889955E1,1.465046398E1
8.067699708E0,-6.141535252E0,3.167222565E-1,-1.351114250E1,1.484485567E1
8.077665708E0,-5.936727169E0,5.438410494E-1,-1.360745900E1,1.485609077E1
8.087632708E0,-5.643139055E0,6.653583236E-1,-1.369912814E1,1.483084057E1
8.097599708E0,-5.323613278E0,8.370903164E-1,-1.363550108E1,1.466180303E1
8.107566708E0,-4.936746873E0,9.513706380E-1,-1.341312796E1,1.432440496E1
8.117532708E0,-4.562717152E0,9.148589424E-1,-1.304797051E1,1.385297402E1
8.127499708E0,-4.169460617E0,8.138026106E-1,-1.250940921E1,1.321105579E1
8.137466708E0,-3.890129185E0,7.076295997E-1,-1.175812853E1,1.240513730E1
8.147433708E0,-3.602234505E0,6.523715115E-1,-1.095908780E1,1.155436227E1
8.157400708E0,-3.325658281E0,4.786088537E-1,-1.002923667E1,1.057708172E1
8.167366708E0,-3.045704706E0,2.218796877E-1,-9.062201344E0,9.562899192E0
8.177333708E0,-2.886670673E0,1.396700283E-1,-8.517422694E0,8.994379614E0
8.187300708E0,-2.770718632E0,8.025149994E-2,-8.237675525E0,8.691525763E0
8.197267708E0,-2.582281583E0,-3.906670958E-4,-7.980973402E0,8.388332061E0
8.207234708E0,-2.159067130E0,-1.533066854E-2,-7.175489041E0,7.493293593E0
8.217200708E0,-1.602566274E0,2.426992837E-1,-5.915002424E0,6.133055949E0
8.227168417E0,-1.059991440E0,4.132514546E-1,-3.963465548E0,4.123520070E0
8.237135417E0,-6.400558135E-1,3.817804974E-1,-9.670189565E-1,1.220882244E0
8.247102417E0,-2.243576646E-3,1.565167337E-1,2.219993071E0,2.225504832E0
8.257068417E0,6.858845356E-1,-1.946254501E-1,5.551288653E0,5.596885060E0
8.267035417E0,1.214894415E0,-6.890738994E-2,9.868596117E0,9.943334752E0
8.277002417E0,1.240350853E0,9.000648290E-2,1.497065430E1,1.502221893E1
8.286969417E0,1.734110208E0,8.643789795E-1,2.008261065E1,2.017586528E1
8.296936417E0,3.895289353E0,4.063589761E-1,2.582774094E1,2.612299004E1
8.306902417E0,6.939197794E0,-6.021013905E-1,3.069244426E1,3.147286334E1
8.316869417E0,1.033290597E1,-2.777268975E0,3.256626872E1,3.427891520E1
8.326836417E0,1.145632216E1,-3.525966933E0,3.166964264E1,3.386216214E1
8.336803417E0,1.027969865E1,-2.649463459E0,2.962847789E1,3.147282261E1
8.346770417E0,8.745351838E0,-1.110043167E0,2.618007544E1,2.762444071E1
8.356736417E0,7.114075735E0,1.624064147E-3,2.192383805E1,2.304918114E1
8.366703417E0,5.138199824E0,1.038444742E0,1.822726691E1,1.896609406E1
8.376670417E0,2.965874425E0,2.206343185E0,1.494178660E1,1.539224961E1
8.386637417E0,8.342450613E-1,4.180480572E0,1.232715032E1,1.304342814E1
8.396603417E0,-1.671850517E-1,3.915561649E0,9.926909230E0,1.067253956E1
8.406570417E0,1.087456396E-1,2.898140278E0,7.763696716E0,8.287703505E0
8.416537417E0,-3.731891835E-1,3.292094679E0,5.504404508E0,6.424611003E0
8.426504417E0,1.293982977E-1,2.116765887E0,2.300534374E0,3.128881612E0
8.436471417E0,6.906701893E-2,1.310853656E0,-1.531092834E0,2.016767916E0
8.446437417E0,-1.129844617E0,9.237539461E-1,-4.687297636E0,4.909239182E0
8.456404417E0,-2.475526628E0,2.630016205E-1,-7.352491860E0,7.762508518E0
8.466371417E0,-4.530603366E0,7.794535808E-1,-9.511981452E0,1.056464414E1
8.476338417E0,-5.503216354E0,-3.347012021E-1,-1.095464392E1,1.226383458E1
8.486305417E0,-7.107355530E0,9.025409786E-1,-1.207858753E1,1.404355224E1
8.496271417E0,-7.545754032E0,2.282773456E-1,-1.317463524E1,1.518425263E1
8.506238417E0,-7.042663690E0,2.770849317E-3,-1.424181524E1,1.588799613E1
8.516205417E0,-6.650157645E0,-2.324088420E-1,-1.507648657E1,1.647965587E1
8.526172417E0,-6.224552266E0,-3.479156171E-1,-1.541769499E1,1.663043640E1
8.536139417E0,-5.709277496E0,-7.044462293E-1,-1.580420062E1,1.681858648E1
8.546105417E0,-5.320838190E0,-8.866271965E-1,-1.582933897E1,1.672319943E1
8.556072417E0,-4.965142706E0,-7.782810679E-1,-1.517280541E1,1.598350361E1
8.566039417E0,-4.797433744E0,-5.736146329E-1,-1.439600281E1,1.518516714E1
8.576006417E0,-4.603238064E0,-4.654582465E-1,-1.370135476E1,1.446145132E1
8.585972417E0,-4.387156841E0,-3.765165415E-1,-1.310573632E1,1.382567302E1
8.595939417E0,-4.183809976E0,-1.864877339E-1,-1.251760232E1,1.319959892E1
8.605906417E0,-4.012189519E0,-3.364911810E-2,-1.197889367E1,1.263300006E1
8.615873417E0,-3.853299912E0,9.906805918E-2,-1.138557202E1,1.202035710E1
8.625840417E0,-3.642397276E0,1.771131854E-1,-1.075258987E1,1.135414532E1
8.635806417E0,-3.288662656E0,1.554534906E-1,-1.020362520E1,1.072163398E1
8.645773417E0,-2.914889920E0,1.150651641E-1,-9.723671708E0,1.015182815E1
8.655740417E0,-2.673732913E0,2.249268179E-1,-9.195138962E0,9.578623089E0
8.665707417E0,-2.503081339E0,3.679264701E-1,-8.646865430E0,9.009387762E0
8.675674417E0,-2.420071050E0,4.862067989E-1,-8.045488071E0,8.415641345E0
8.685640417E0,-2.328607441E0,9.362242299E-1,-7.020551274E0,7.455673586E0
8.695607417E0,-1.885628522E0,3.863590866E-1,-6.240568374E0,6.530663205E0
8.705574417E0,-1.390067640E0,-8.406322673E-2,-5.617269804E0,5.787320167E0
8.715541417E0,-7.496992931E-1,-4.409941540E-1,-4.309095050E0,4.396001026E0
8.725508417E0,-4.941920489E-2,-2.668941850E-1,-2.781635676E0,2.794847366E0
8.735474417E0,6.344249448E-1,-7.207044125E-1,-8.663948071E-1,1.293270978E0
8.745441417E0,1.252672690E0,-9.384104307E-1,3.180020512E0,3.544338226E0
8.755408417E0,3.082028194E0,-3.255413341E0,7.003047634E0,8.315003907E0
8.765375417E0,4.914378349E0,-5.266655551E0,1.211278672E1,1.409284845E1
8.775342417E0,7.042169015E0,-5.428772528E0,1.515842945E1,1.757389254E1
8.785308417E0,9.150286725E0,-5.392687021E0,1.780748711E1,2.073440179E1
8.795275417E0,1.152483398E1,-3.985868570E0,2.050179754E1,2.385440523E1
8.805242417E0,1.455415011E1,-3.732713369E0,2.341696199E1,2.782284212E1
8.815209417E0,1.747619323E1,-4.700118826E0,2.538255031E1,3.117342308E1
8.825175417E0,1.828330896E1,-5.833869383E0,2.669538822E1,3.287791311E1
8.835142417E0,1.706939191E1,-6.597326297E0,2.828543560E1,3.368908906E1
8.845109417E0,1.445653903E1,-5.799336897E0,2.837877354E1,3.237249785E1
8.855076417E0,1.130489448E1,-4.780946935E0,2.588982199E1,2.865206756E1
8.865043417E0,8.514667486E0,-3.970338365E0,2.321017638E1,2.503947756E1
8.875009417E0,5.386216493E0,-1.100019285E0,1.928760567E1,2.005574987E1
8.884976417E0,2.743477331E0,2.337982428E0,1.486604294E1,1.529679909E1
8.894943417E0,1.077105070E0,3.897947789E0,1.059306497E1,1.133874674E1
8.904910417E0,3.187448815E-1,5.427358671E0,6.100967855E0,8.171880396E0
8.914877417E0,6.204445446E-1,5.128119809E0,1.889873309E0,5.500380471E0
8.924843417E0,7.313524845E-1,3.648400904E0,-1.780205855E0,4.124904666E0
8.934810417E0,-2.683483145E-1,3.344295404E0,-5.036240171E0,6.051449217E0
8.944777417E0,-2.210559173E0,2.755070898E0,-7.471469250E0,8.264371740E0
8.954744417E0,-4.180993080E0,1.984530082E0,-8.794004180E0,9.937483198E0
8.964711417E0,-5.993411247E0,1.974624899E0,-1.013057243E1,1.193518410E1
8.974677417E0,-7.192952335E0,1.462741807E0,-1.089846621E1,1.313981517E1
8.984644417E0,-7.993370084E0,1.377457243E0,-1.105331451E1,1.371010997E1
8.994611417E0,-8.654938681E0,1.677924605E0,-1.136661768E1,1.438483202E1
9.004578417E0,-8.634727196E0,1.375692845E0,-1.228336754E1,1.507753835E1
9.014544417E0,-8.135911753E0,1.256491507E0,-1.313403334E1,1.550079555E1
9.024511417E0,-7.452306170E0,1.270616626E0,-1.367925696E1,1.562924838E1
9.034478417E0,-6.966980839E0,1.054631005E0,-1.387223145E1,1.555923758E1
9.044445417E0,-6.754797662E0,8.358492449E-1,-1.363107123E1,1.523587996E1
9.054412417E0,-6.812507926E0,6.140658170E-1,-1.286950881E1,1.457434726E1
9.064378417E0,-7.030144801E0,3.768765838E-1,-1.165209980E1,1.361383126E1
9.074345417E0,-7.198784932E0,-3.235819906E-2,-1.046383799E1,1.270100221E1
9.084312417E0,-7.166149868E0,-4.026500872E-1,-9.427500880E0,1.184878069E1
9.094279417E0,-6.966888453E0,-6.328195918E-1,-8.643617887E0,1.111980780E1
9.104246417E0,-6.667839625E0,-8.013228983E-1,-8.146335000E0,1.055769755E1
9.114212417E0,-6.312682085E0,-9.300503741E-1,-7.887876374E0,1.014561691E1
9.124179417E0,-5.982840650E0,-9.145684089E-1,-7.887709728E0,9.942171914E0
9.134146417E0,-5.786432676E0,-8.794612876E-1,-8.019943340E0,9.928531939E0
9.144113417E0,-5.558525167E0,-1.034434722E0,-8.356203849E0,1.008927153E1
9.154080417E0,-5.331005913E0,-7.975172380E-1,-8.536553029E0,1.009595936E1
9.164046417E0,-5.086881151E0,-8.514351444E-1,-8.655476040E0,1.007564227E1
9.174013417E0,-4.557464306E0,-8.613641551E-1,-8.644392643E0,9.810094458E0
9.183980417E0,-3.793574697E0,-8.879382885E-1,-7.872288281E0,8.783653350E0
9.193947417E0,-2.862612011E0,-8.453585717E-1,-6.321156455E0,6.990436150E0
9.203914417E0,-1.906903909E0,-9.744080830E-1,-4.238429695E0,4.748688230E0
9.213880417E0,-1.027261065E0,-1.329548666E0,-1.615340102E0,2.330727053E0
9.223847417E0,1.134655121E-1,-2.231232004E0,1.136868292E0,2.506738956E0
9.233814292E0,5.479832169E-1,-2.698677135E0,4.740507883E0,5.482295037E0
9.243781292E0,8.525117630E-1,-1.059516353E0,1.006389897E1,1.015536379E1
9.253748292E0,3.014236745E0,1.584224144E-1,1.591344064E1,1.619716993E1
9.263714292E0,7.807514580E0,8.684094653E-1,2.090994255E1,2.233690033E1
9.273681292E0,1.481005702E1,-7.516975790E-2,2.404942022E1,2.824390292E1
9.283648292E0,2.049755714E1,-1.127760377E0,2.474520146E1,3.215193132E1
9.293615292E0,2.246302852E1,-2.572540414E0,2.576988391E1,3.428253974E1
9.303581292E0,2.117354439E1,-3.828127649E0,2.648850203E1,3.412644551E1
9.313548292E0,1.835458652E1,-4.010550252E0,2.633445597E1,3.234932659E1
9.323515292E0,1.396583134E1,-3.769574801E0,2.518733517E1,2.904575687E1
9.333482292E0,9.002625818E0,-2.766383799E0,2.172308209E1,2.367683354E1
9.343449292E0,5.061064525E0,-6.353523132E-1,1.657961158E1,1.734651455E1
9.353415292E0,1.827551345E0,1.535701025E0,1.107414113E1,1.132850049E1
9.363382292E0,7.006426156E-2,2.943912283E0,6.374646199E0,7.021940094E0
9.373349292E0,-4.703143591E-1,3.601391922E0,2.362162857E0,4.332554989E0
9.383316292E0,-3.448611778E-1,3.530772467E0,-9.233665681E-1,3.665772669E0
9.393283292E0,-1.945912439E-1,3.417678253E0,-3.548088704E0,4.930245820E0
9.403249292E0,-2.951452267E-1,3.311268284E0,-5.638087646E0,6.545199818E0
9.413216292E0,-1.052181898E0,3.041598206E0,-7.159236120E0,7.849399226E0
9.423183292E0,-2.472364161E0,3.079960619E0,-7.850365316E0,8.787888116E0
9.433150292E0,-3.997909741E0,2.925947005E0,-8.037657480E0,9.441842296E0
9.443117292E0,-5.380687366E0,2.650070400E0,-8.132833779E0,1.010532805E1
9.453083292E0,-6.050980593E0,2.431015576E0,-7.930983801E0,1.026765343E1
9.463050292E0,-6.064089466E0,2.363312712E0,-7.374620647E0,9.835825218E0
9.473017292E0,-5.972874656E0,2.490535553E0,-7.957098051E0,1.025638379E1
9.482984292E0,-6.035093708E0,2.095178844E0,-8.691147564E0,1.078648119E1
9.492951292E0,-5.202718586E0,5.724273558E-1,-7.478132737E0,9.127892582E0
9.502917292E0,-5.439660044E0,6.679683745E-1,-9.032686939E0,1.056529775E1
9.512884292E0,-5.643865864E0,1.950437014E0,-1.007496775E1,1.171163531E1
9.522851292E0,-5.014237683E0,2.382674743E0,-1.020795799E1,1.161990210E1
9.532818292E0,-4.253596203E0,2.083879977E0,-1.000774465E1,1.107206346E1
9.542785292E0,-3.594032616E0,2.024846488E0,-9.119743209E0,1.000933514E1
9.552751292E0,-3.612357205E0,2.023907133E0,-8.045927197E0,9.048882203E0
9.562718292E0,-4.140332127E0,1.975116503E0,-7.640481849E0,8.911812285E0
9.572685292E0,-4.158282495E0,1.470108129E0,-7.308584533E0,8.536271967E0
9.582652292E0,-3.957231832E0,3.760788774E-1,-6.739606596E0,7.824539357E0
9.592619292E0,-4.156081895E0,-3.326640321E-1,-5.961225833E0,7.274606210E0
9.602585292E0,-4.067661177E0,-9.219927648E-1,-5.736248363E0,7.092283370E0
9.612552292E0,-4.122405149E0,-6.786029980E-1,-6.146466794E0,7.431943238E0
9.622519292E0,-4.312434980E0,-1.527389207E-1,-6.499895897E0,7.801863322E0
9.632486292E0,-4.255608230E0,7.127331957E-1,-6.419827634E0,7.735139098E0
9.642452292E0,-2.560239626E0,-2.085116225E0,-4.931351062E0,5.934708073E0
9.652419292E0,-2.166790718E0,-2.857445996E0,-5.114644316E0,6.246564345E0
9.662386292E0,-1.768993819E0,-2.638449351E0,-4.259969083E0,5.313952456E0
9.672353292E0,-1.258236024E0,-2.058695288E0,-9.280525267E-1,2.585085235E0
9.682320292E0,8.323485169E-1,-6.483930659E-1,3.523606997E0,3.678182144E0
9.692286292E0,1.964720008E0,1.092193810E0,4.670237800E0,5.183062139E0
9.702253292E0,3.645987466E-1,1.892011928E0,3.804281534E0,4.264410788E0
9.712220292E0,-7.495724085E-1,1.193783043E0,4.595349585E0,4.806684363E0
9.722187292E0,3.293017370E-1,2.531176625E0,7.475936522E0,7.899678578E0
9.732154292E0,1.575365904E0,3.065627924E0,1.049285655E1,1.104445069E1
9.742120292E0,4.087791971E0,2.319235231E0,1.309331684E1,1.391128467E1
9.752087292E0,7.059548694E0,1.461879635E0,1.561812819E1,1.720175130E1
9.762054292E0,9.642636901E0,-2.917269444E-1,1.835716514E1,2.073767256E1
9.772021292E0,1.140041459E1,1.210090050E-1,1.948793713E1,2.257794919E1
9.781988292E0,1.186560854E1,8.350993395E-2,1.871936975E1,2.216335813E1
9.791954292E0,1.092175450E1,7.238464138E-1,1.742850684E1,2.058061043E1
9.801921292E0,9.200976237E0,1.616641400E0,1.574986362E1,1.831200964E1
9.811888292E0,7.359381049E0,1.467952845E0,1.298709515E1,1.499933383E1
9.821855292E0,5.547123681E0,7.364799079E-1,1.032214826E1,1.174136826E1
9.831822292E0,4.441816028E0,-1.184160572E0,7.633153533E0,8.910499355E0
9.841788292E0,3.592148935E0,-3.019674656E0,3.908277773E0,6.107094575E0
9.851755292E0,2.734819652E0,-2.923449367E0,1.087307292E0,4.148256486E0
9.861722292E0,1.740686279E0,-1.649410366E0,-1.004818867E0,2.600039275E0
9.871689292E0,6.522428727E-1,9.151570773E-1,-3.107162451E0,3.304147656E0
9.881656292E0,-1.324520938E0,4.863475706E0,-4.887852455E0,7.021314213E0
9.891622292E0,-3.889721926E0,9.259359516E0,-4.264317073E0,1.091100708E1
9.901589292E0,-5.335749759E0,1.061079489E1,-2.619601144E0,1.216229846E1
9.911556292E0,-5.118038040E0,-3.251680478E-1,-5.539438101E0,7.548868929E0
9.921523292E0,-5.907727903E0,-3.848460464E0,-7.116433332E0,1.001776024E1
9.931490292E0,-6.711833491E0,-1.702815910E-1,-4.190348040E0,7.914336443E0
9.941456292E0,-6.802381718E0,-1.204338290E0,-4.613974137E0,8.307321174E0
9.951423292E0,-6.667052590E0,-1.586137791E0,-6.404948809E0,9.380234143E0
9.961390292E0,-6.392832209E0,-1.732976140E0,-8.286513809E0,1.060838447E1
9.971357292E0,-6.589084062E0,-1.184470475E0,-9.429618741E0,1.156445886E1
9.981323292E0,-6.487795084E0,-6.509208173E-1,-9.507427640E0,1.152850221E1
9.991290292E0,-6.738778630E0,-7.389600044E-1,-9.783725536E0,1.190287716E1
1.000125729E1,-7.223651386E0,-1.181573764E0,-1.014552961E1,1.251035679E1
1.001122429E1,-7.129866725E0,-1.389982856E0,-1.021986643E1,1.253844973E1
1.002119129E1,-6.725993693E0,-1.560604024E0,-9.851146857E0,1.202994474E1
1.003115729E1,-6.532974765E0,-1.802132768E0,-9.781024708E0,1.189940697E1
1.004112429E1,-6.805759070E0,-1.507496249E0,-9.671432683E0,1.192172436E1
1.005109129E1,-6.651275632E0,-1.191087769E0,-9.666451440E0,1.179400021E1
1.006105829E1,-6.297464706E0,-1.373729496E0,-9.240109313E0,1.126609136E1
1.007102529E1,-6.169559788E0,-1.451996963E0,-8.589319473E0,1.067465092E1
1.008099129E1,-5.785141611E0,-1.591938083E0,-8.473776153E0,1.038301558E1
1.009095829E1,-5.253705137E0,-1.937897952E0,-8.360450681E0,1.006250474E1
1.010092529E1,-4.718643390E0,-1.390316732E0,-7.832815483E0,9.249409410E0
1.011089229E1,-4.206472907E0,-9.987605667E-1,-7.469344956E0,8.630356369E0
1.012085929E1,-3.711793200E0,-1.522291020E0,-6.395859312E0,7.549953315E0
1.013082529E1,-3.069116957E0,-1.928657013E0,-4.894584939E0,6.090661581E0
1.014079229E1,-2.687692555E0,-2.035060258E0,-2.424997036E0,4.152802927E0
1.015075929E1,-1.944537174E0,-1.815370426E0,4.563436067E-1,2.699082083E0
1.016072629E1,-7.337729394E-1,-1.358269604E0,2.207244387E0,2.693556539E0
1.017069329E1,3.482794601E-1,-7.126101118E-1,4.304412600E0,4.376880120E0
1.018065929E1,1.510352175E0,-2.769521999E-1,5.707516315E0,5.910466031E0
1.019062629E1,3.158189347E0,6.575796264E-1,6.855518875E0,7.576589600E0
1.020059329E1,5.649307283E0,-3.572859263E-1,8.926780415E0,1.057022869E1
1.021056029E1,8.756371500E0,-1.542972622E0,1.263054948E1,1.544621593E1
1.022052729E1,1.199747963E1,-3.498827666E-1,1.574217102E1,1.979590573E1
1.023049329E1,1.481130598E1,2.000725115E0,1.800964640E1,2.340352643E1
1.024046029E1,1.592760026E1,4.834016849E0,2.036611875E1,2.630275579E1
1.025042729E1,1.588793275E1,7.291318874E0,2.076930298E1,2.714689088E1
1.026039429E1,1.547297457E1,2.712998720E0,1.835096241E1,2.415638892E1
1.027036129E1,1.321518685E1,1.136752517E0,1.708641900E1,2.163051280E1
1.028032729E1,1.054665445E1,4.443291865E-1,1.651521971E1,1.960055689E1
1.029029429E1,6.757117252E0,2.620083539E0,1.569711705E1,1.728938851E1
1.030026129E1,4.494507335E0,1.808448492E0,1.331692606E1,1.417080103E1
1.031022829E1,2.641070951E0,8.547152862E-1,1.081433413E1,1.116492798E1
1.032019529E1,1.839149297E0,1.456962272E0,8.006043924E0,8.342778225E0
1.033016129E1,1.351209092E0,1.897612683E0,4.519857938E0,5.084861423E0
1.034012829E1,8.238259077E-1,2.367994139E0,1.797324164E0,3.084875933E0
1.035009529E1,-1.406962878E-1,2.572266179E0,-1.035410330E0,2.776404742E0
1.036006229E1,-9.692894304E-1,2.430584636E0,-2.697985994E0,3.758509291E0
1.037002929E1,-2.091304625E0,2.036342552E0,-4.302535644E0,5.199236385E0
1.037999529E1,-3.180880637E0,1.522576510E0,-5.281229736E0,6.350403796E0
1.038996229E1,-4.030931892E0,8.667693944E-1,-5.593931812E0,6.949228318E0
1.039992929E1,-5.206999918E0,9.460405355E-1,-6.414539412E0,8.315897829E0
1.040989629E1,-5.993171511E0,1.028183610E0,-6.589254801E0,8.966244761E0
1.041986329E1,-6.474119616E0,4.650283299E-1,-7.228970599E0,9.715374006E0
1.042982929E1,-6.265025523E0,1.075118771E-1,-7.776851782E0,9.987068000E0
1.043979629E1,-7.086773331E0,2.195805040E0,-8.345617465E0,1.116661304E1
1.044976329E1,-6.642358629E0,7.402765051E-1,-9.454585767E0,1.157834744E1
1.045973029E1,-6.450205674E0,5.041954654E-1,-8.991607325E0,1.107738094E1
1.046969729E1,-6.416986472E0,5.939524184E-1,-9.600406555E0,1.156279814E1
1.047966329E1,-6.434578990E0,4.008178622E-1,-9.520626560E0,1.149812123E1
1.048963029E1,-6.499429289E0,2.505578685E-1,-9.432802550E0,1.145788481E1
1.049959729E1,-6.435971212E0,1.678735614E-3,-9.150369755E0,1.118709055E1
1.050956429E1,-6.418140712E0,-1.139188175E-1,-8.983386725E0,1.104113874E1
1.051953129E1,-6.407260798E0,-1.535342883E-1,-8.929762495E0,1.099168877E1
1.052949729E1,-6.334296318E0,-1.459228215E-1,-9.102369377E0,1.109043424E1
1.053946429E1,-6.133704661E0,-1.148938407E-1,-9.400194967E0,1.122493648E1
1.054943129E1,-5.850400631E0,-2.613174762E-1,-9.443820459E0,1.111221037E1
1.055939829E1,-5.764043688E0,-1.639505182E-1,-9.691836542E0,1.127753408E1
1.056936529E1,-5.577950787E0,-1.114479303E-1,-9.497647587E0,1.101504722E1
1.057933129E1,-5.296954653E0,-3.935800324E-1,-9.569677098E0,1.094492364E1
1.058929829E1,-5.124049562E0,-3.445853354E-1,-8.868111792E0,1.024783049E1
1.059926529E1,-5.051559876E0,-4.633535412E-1,-8.058564785E0,9.522259189E0
1.060923229E1,-4.708813636E0,-2.436103530E-1,-6.928340684E0,8.380583302E0
1.061919829E1,-4.274543853E0,2.122669382E-1,-5.711900557E0,7.137407819E0
1.062916529E1,-3.891526669E0,4.147558701E-1,-3.670137051E0,5.365250062E0
1.063913229E1,-2.883257945E0,2.550491148E-1,-1.402886783E0,3.216569253E0
1.064909929E1,-1.162871445E0,5.832381266E-1,8.711602879E-1,1.565680988E0
1.065906629E1,8.602324265E-1,1.555886490E0,4.455717491E0,4.797311847E0
1.066903229E1,3.897162216E0,2.427189450E0,8.835679041E0,9.957326251E0
1.067899929E1,8.420370024E0,2.971998506E0,1.292262024E1,1.570762618E1
1.068896629E1,1.529883630E1,3.038400072E0,1.557332448E1,2.204120465E1
1.069893329E1,2.254390019E1,2.323985217E0,1.881545353E1,2.945589304E1
1.070890029E1,2.674726939E1,-9.436353564E-2,2.299417088E1,3.527261287E1
1.071886629E1,2.711950314E1,-2.308809353E0,2.322577441E1,3.578036680E1
1.072883329E1,2.380633276E1,-2.303108610E0,2.201746601E1,3.250868496E1
1.073880029E1,1.869533535E1,-2.681791545E0,2.192385208E1,2.893722274E1
1.074876729E1,1.256307846E1,-2.314660516E0,1.956697043E1,2.336781816E1
1.075873429E1,7.690054543E0,-1.321218284E0,1.632173066E1,1.809092171E1
1.076870029E1,4.820142868E0,-3.076475970E-1,1.350136361E1,1.433929021E1
1.077866729E1,2.857877521E0,5.470913704E-1,1.046290244E1,1.085997700E1
1.078863429E1,2.254769971E0,1.395694854E0,7.376724476E0,7.838878474E0
1.079860129E1,2.077965372E0,2.044596043E0,4.187012204E0,5.101900064E0
1.080856829E1,1.605016842E0,2.694293769E0,1.226524234E0,3.367441117E0
1.081853429E1,7.282689553E-1,3.067436175E0,-1.193212647E0,3.370948944E0
1.082850129E1,-4.494444770E-1,3.165833997E0,-2.752556303E0,4.219131598E0
1.083846829E1,-1.666909035E0,2.861665347E0,-4.316988207E0,5.440965123E0
1.084843529E1,-2.889529669E0,2.506087100E0,-5.371144125E0,6.593864077E0
1.085840229E1,-4.093022890E0,1.859234045E0,-6.025885513E0,7.518037232E0
1.086836829E1,-5.174294102E0,1.298592191E0,-6.637666238E0,8.515766214E0
1.087833529E1,-6.198866617E0,8.965474364E-1,-7.212953905E0,9.552824121E0
1.088830229E1,-7.143402445E0,6.428798725E-1,-7.640449104E0,1.047940626E1
1.089826929E1,-7.669776984E0,1.905471633E-1,-8.181112484E0,1.121572060E1
1.090823629E1,-7.831561840E0,7.723250940E-2,-8.429508052E0,1.150634311E1
1.091820229E1,-8.070369143E0,6.914624870E-2,-8.953857701E0,1.205434391E1
1.092816929E1,-8.260682564E0,-1.567569812E-1,-9.295464903E0,1.243660392E1
1.093813629E1,-8.420719687E0,-3.289023721E-1,-9.265725380E0,1.252478996E1
1.094810329E1,-8.399788994E0,-4.592658989E-1,-9.187027704E0,1.245667927E1
1.095807029E1,-8.033970226E0,-3.526413368E-1,-9.294525840E0,1.229053474E1
1.096803629E1,-7.950710553E0,-7.379170074E-1,-9.500337891E0,1.241026752E1
1.097800329E1,-7.891332078E0,-1.174928988E0,-9.220800637E0,1.219330736E1
1.098797029E1,-8.113955458E0,-1.110178676E0,-8.833669353E0,1.204584925E1
1.099793729E1,-8.157148840E0,-1.114783066E0,-8.413106613E0,1.177124383E1
1.100790429E1,-8.065794867E0,-1.316802028E0,-8.113494113E0,1.151606709E1
1.101787029E1,-7.962676880E0,-1.376428425E0,-7.874114951E0,1.128275075E1
1.102783729E1,-7.666559846E0,-1.471914334E0,-7.649223436E0,1.092946892E1
1.103780429E1,-7.321117455E0,-1.467106461E0,-7.521161227E0,1.059806720E1
1.104777129E1,-7.142477415E0,-1.226300871E0,-7.202875060E0,1.021764193E1
1.105773829E1,-6.794782677E0,-1.181922843E0,-7.215590415E0,9.981520839E0
1.106770429E1,-6.278905059E0,-9.883329347E-1,-7.091065772E0,9.522849600E0
1.107767129E1,-5.567571979E0,-6.551264271E-1,-6.757547607E0,8.780176424E0
1.108763829E1,-4.515918669E0,-5.965186152E-1,-6.262722305E0,7.744097530E0
1.109760529E1,-3.742602180E0,-4.891950184E-1,-4.846831314E0,6.143138988E0
1.110757229E1,-2.437106620E0,-4.252674097E-1,-2.740533843E0,3.692000378E0
1.111753829E1,-4.294896841E-1,-9.924514210E-1,-4.471190393E-1,1.170186586E0
1.112750529E1,1.484227400E0,-1.132476448E0,2.303833957E0,2.965313607E0
1.113747229E1,3.418440145E0,-7.967264020E-1,5.580529994E0,6.592633844E0
1.114743929E1,5.966814601E0,-1.427220556E-1,9.380775779E0,1.111855208E1
1.115740629E1,9.409868016E0,1.905293586E0,1.398569433E1,1.696394429E1
1.116737229E1,1.395111507E1,3.982426607E0,1.743407924E1,2.268127978E1
1.117733929E1,2.054593233E1,4.504112264E0,1.967518368E1,2.880165300E1
1.118730629E1,2.564523764E1,3.118275376E0,2.173326326E1,3.375998500E1
1.119727329E1,2.740055541E1,1.016985753E0,2.286944041E1,3.570484563E1
1.120724029E1,2.683286795E1,1.674660105E-1,2.180268374E1,3.457438164E1
1.121720629E1,2.385348938E1,-8.513461205E-1,2.021431100E1,3.127830103E1
1.122717329E1,1.865113625E1,-1.436975466E0,1.763064158E1,2.570543336E1
1.123713992E1,1.330436858E1,-7.645591146E-1,1.366401678E1,1.908654313E1
1.124710692E1,8.776149123E0,6.029482135E-1,9.699425059E0,1.309439523E1
1.125707392E1,5.220962484E0,1.711773844E0,6.227249587E0,8.304652694E0
1.126703992E1,2.773893378E0,2.260496149E0,2.871815529E0,4.588207901E0
1.127700692E1,1.337184545E0,2.317790969E0,-1.380276185E-1,2.679415814E0
1.128697392E1,1.316102993E-1,1.951894140E0,-2.922658238E0,3.516979270E0
1.129694092E1,-1.104945418E0,1.594972495E0,-5.353726439E0,5.694491059E0
1.130690792E1,-2.373191290E0,1.286663432E0,-7.219503956E0,7.707708938E0
1.131687392E1,-4.029309874E0,9.906428772E-1,-8.565678011E0,9.517749269E0
1.132684092E1,-5.738300736E0,6.528489366E-1,-9.304660819E0,1.095130221E1
1.133680792E1,-6.963283644E0,1.778655759E-1,-9.522675424E0,1.179831778E1
1.134677492E1,-8.108341547E0,-1.672375305E-1,-9.241331965E0,1.229534007E1
1.135674192E1,-9.171543108E0,-2.729771166E-1,-9.230411121E0,1.301507622E1
1.136670792E1,-9.900005021E0,-2.317755885E-1,-9.638563730E0,1.381903506E1
1.137667492E1,-9.426584036E0,-2.432495798E-1,-8.623667772E0,1.277839203E1
1.138664192E1,-9.190941830E0,-4.562735863E-1,-8.940148319E0,1.282995905E1
1.139660892E1,-8.758646652E0,-4.896794602E-1,-8.819610892E0,1.243942175E1
1.140657592E1,-8.459584376E0,-5.887880114E-1,-8.585149823E0,1.206714700E1
1.141654192E1,-8.297128844E0,-6.068911372E-1,-8.264459866E0,1.172654940E1
1.142650892E1,-7.949987837E0,-7.171215311E-1,-8.002703410E0,1.130308948E1
1.143647592E1,-7.638188571E0,-8.210097425E-1,-7.567025033E0,1.078312800E1
1.144644292E1,-7.781136037E0,-7.521098077E-1,-7.105130664E0,1.056383590E1
1.145640992E1,-7.878149530E0,-7.261123560E-1,-6.850622417E0,1.046534790E1
1.146637592E1,-7.764024160E0,-5.701029414E-1,-6.785953966E0,1.032735492E1
1.147634292E1,-7.602626390E0,-5.019657759E-1,-6.862202243E0,1.025386353E1
1.148630992E1,-7.463663217E0,-4.414396387E-1,-7.022932261E0,1.025781239E1
1.149627692E1,-7.266507969E0,-3.956459999E-1,-7.079813974E0,1.015295227E1
1.150624392E1,-7.190126376E0,-3.293461758E-1,-7.201937166E0,1.018205702E1
1.151620992E1,-7.375948550E0,4.590941370E-2,-7.132542411E0,1.026059871E1
1.152617692E1,-7.057602156E0,2.636290267E-1,-6.941736655E0,9.902876160E0
1.153614392E1,-6.541440364E0,3.127435917E-1,-6.469450614E0,9.205544082E0
1.154611092E1,-5.742469216E0,4.250238732E-1,-5.492508348E0,7.957653294E0
1.155607792E1,-4.770986495E0,5.828647819E-1,-3.727630969E0,6.082538625E0
1.156604392E1,-3.834255531E0,8.564905009E-1,-1.455699420E0,4.189767566E0
1.157601092E1,-3.613041914E0,1.534591515E0,7.251734394E-1,3.991856649E0
1.158597792E1,-3.114491351E0,2.537480216E0,3.394850723E0,5.259645773E0
1.159594492E1,-1.692608718E0,4.166285286E0,6.932035539E0,8.262927694E0
1.160591192E1,1.247540882E0,5.321919340E0,1.085275970E1,1.215160799E1
1.161587792E1,5.703485829E0,4.903883474E0,1.561915496E1,1.733596912E1
1.162584492E1,1.220875590E1,3.406963815E0,1.999725768E1,2.367596751E1
1.163581192E1,1.950110506E1,2.159189922E0,2.235271729E1,2.974221191E1
1.164577892E1,2.519455063E1,1.058538991E0,2.293676993E1,3.408784682E1
1.165574592E1,2.885528419E1,-1.155225626E-1,2.215743899E1,3.638121595E1
1.166571192E1,2.952227374E1,-9.010383904E-1,1.957645695E1,3.543464666E1
1.167567892E1,2.591053751E1,-7.602330521E-1,1.596209182E1,3.044211365E1
1.168564592E1,1.997350395E1,2.410298306E-1,1.294753172E1,2.380414949E1
1.169561292E1,1.500738300E1,-3.051077127E-2,1.131895586E1,1.879737315E1
1.170557992E1,1.080899913E1,-5.364680028E-1,1.037496967E1,1.499207310E1
1.171554592E1,6.910456975E0,-3.210320199E-1,9.491867030E0,1.174534022E1
1.172551292E1,4.435441686E0,1.362807629E-1,8.200936884E0,9.324541875E0
1.173547992E1,3.049756241E0,1.995338953E-1,6.351100631E0,7.048212974E0
1.174544692E1,1.704077446E0,1.309051251E-1,4.067761749E0,4.412221860E0
1.175541392E1,3.353419107E-1,3.113642335E-1,1.494982769E0,1.563449827E0
1.176538092E1,-1.054370511E0,5.819681114E-1,-1.675741839E0,2.063612069E0
1.177534692E1,-2.420206997E0,8.671885666E-1,-4.110020161E0,4.847853509E0
1.178531392E1,-3.548658223E0,5.514205027E-1,-6.215421254E0,7.178335539E0
1.179528092E1,-5.505010280E0,4.626939753E-1,-7.630318218E0,9.420243097E0
1.180524792E1,-7.130593534E0,3.454230952E-1,-8.730846065E0,1.127795878E1
1.181521492E1,-8.229056729E0,2.765426025E-1,-9.285378456E0,1.241016130E1
1.182518092E1,-9.287779323E0,2.843047813E-1,-9.742975706E0,1.346362691E1
1.183514792E1,-9.706074513E0,2.217097530E-1,-1.004493645E1,1.396988854E1
1.184511492E1,-9.717397646E0,-1.410760644E-1,-1.007004907E1,1.399477073E1
1.185508192E1,-9.692278007E0,2.258139136E-1,-1.040625929E1,1.422256929E1
1.186504892E1,-1.005831722E1,2.076816979E-1,-1.053045649E1,1.456376980E1
1.187501492E1,-9.860688343E0,-3.734128395E-1,-9.988513155E0,1.404076233E1
1.188498192E1,-9.689281894E0,-5.575592020E-1,-9.571004416E0,1.363074398E1
1.189494892E1,-9.755393438E0,-7.548094672E-1,-8.744322143E0,1.312252294E1
1.190491592E1,-9.933590258E0,-1.010820449E0,-8.004705496E0,1.279739362E1
1.191488292E1,-9.864103117E0,-1.225177913E0,-7.404445540E0,1.239465227E1
1.192484892E1,-9.790169168E0,-1.323491243E0,-6.735056292E0,1.195658917E1
1.193481592E1,-9.617617249E0,-1.199490510E0,-6.248984272E0,1.153200518E1
1.194478292E1,-9.036749584E0,-8.751100820E-1,-6.095948020E0,1.093568667E1
1.195474992E1,-8.562015899E0,-7.684504366E-1,-6.273660107E0,1.064224805E1
1.196471692E1,-8.178855459E0,-3.731941536E-1,-6.471866684E0,1.043637911E1
1.197468292E1,-8.039724471E0,-1.118037334E-1,-6.627750530E0,1.042001664E1
1.198464992E1,-8.002859530E0,-7.629125386E-2,-6.609489675E0,1.037964040E1
1.199461692E1,-7.819280348E0,4.209995270E-2,-6.104923496E0,9.920333082E0
1.200458392E1,-7.619832407E0,-1.139987782E-1,-5.511948001E0,9.405126921E0
1.201455092E1,-7.216106724E0,-4.392358232E-1,-4.805476004E0,8.680882673E0
1.202451692E1,-6.610076151E0,-6.082829207E-1,-3.998933004E0,7.749489016E0
1.203448392E1,-5.877559778E0,-8.342488620E-1,-3.073612881E0,6.684966436E0
1.204445092E1,-4.879435973E0,-9.488121888E-1,-1.853054561E0,5.304993044E0
1.205441792E1,-3.639303514E0,-1.059063486E0,-3.825321570E-1,3.809524430E0
1.206438492E1,-2.276191830E0,-1.141282648E0,1.196256707E0,2.813290856E0
1.207435092E1,-7.617793483E-1,-1.010695903E0,2.615171001E0,2.905328441E0
1.208431792E1,1.204592498E0,-5.354052714E-1,3.999101989E0,4.210762236E0
1.209428492E1,4.496814061E0,5.736469388E-2,5.538543477E0,7.134429988E0
1.210425192E1,8.586836160E0,4.170912480E-1,6.947147083E0,1.105307979E1
1.211421892E1,1.321265851E1,1.769290566E0,9.398669429E0,1.631072411E1
1.212418492E1,1.904411475E1,1.872196883E0,1.236351299E1,2.278244678E1
1.213415192E1,2.531031147E1,1.127927607E0,1.375933224E1,2.883059679E1
1.214411892E1,3.010456053E1,2.550948400E0,1.555290366E1,3.398065206E1
1.215408592E1,3.281266805E1,-7.006250739E-2,1.702483846E1,3.696648777E1
1.216405292E1,3.176659415E1,-7.751504686E-1,1.654206076E1,3.582397433E1
1.217401892E1,2.781791797E1,-9.668192741E-1,1.624297217E1,3.222740208E1
1.218398592E1,2.236387845E1,-1.569086872E0,1.536196518E1,2.717710557E1
1.219395292E1,1.632919288E1,-1.715647624E0,1.365314564E1,2.135402474E1
1.220391992E1,1.113778807E1,-8.918389660E-1,1.154256976E1,1.606476319E1
1.221388692E1,6.970507295E0,2.415785918E-1,8.881740482E0,1.129299102E1
1.222385392E1,3.901280994E0,1.235186592E0,6.347373616E0,7.552140831E0
1.223381617E1,1.752801710E0,1.865596254E0,3.711744668E0,4.508859246E0
1.224378317E1,2.768422723E-2,2.199698555E0,9.234308875E-1,2.385825801E0
1.225375017E1,-1.708254113E0,2.395844281E0,-1.544515702E0,3.323210900E0
1.226371717E1,-3.520899151E0,2.426630164E0,-3.552026219E0,5.558970682E0
1.227368417E1,-5.216802775E0,2.478564256E0,-5.387235078E0,7.898139891E0
1.228365017E1,-6.771450532E0,2.452674832E0,-6.737096386E0,9.861877299E0
1.229361717E1,-8.302952671E0,2.030897625E0,-7.386395770E0,1.129700893E1
1.230358417E1,-9.428103143E0,1.997723447E0,-7.286663321E0,1.208203171E1
1.231355117E1,-1.059943025E1,1.778383863E0,-7.508554630E0,1.311064313E1
1.232351817E1,-1.131320103E1,1.801783543E0,-8.239357184E0,1.411105766E1
1.233348417E1,-1.143871385E1,1.900583946E0,-7.807350274E0,1.397895247E1
1.234345117E1,-1.140902403E1,1.743654910E0,-7.489705546E0,1.375870092E1
1.235341817E1,-1.145513517E1,1.691951491E0,-7.585656016E0,1.384286816E1
1.236338517E1,-1.134971221E1,1.790758618E0,-7.390397020E0,1.366165260E1
1.237335217E1,-1.124351508E1,1.702705105E0,-7.269533318E0,1.349673852E1
1.238331817E1,-1.089552272E1,1.521680571E0,-6.990205979E0,1.303422060E1
1.239328517E1,-1.036809802E1,1.406023230E0,-6.658291706E0,1.240190334E1
1.240325217E1,-9.999539834E0,1.312863051E0,-6.486817430E0,1.199138051E1
1.241321917E1,-9.676670619E0,1.257399872E0,-5.837404025E0,1.137076490E1
1.242318617E1,-9.449364789E0,1.108951638E0,-5.810158339E0,1.114801366E1
1.243315217E1,-9.661092467E0,1.073931494E0,-6.711222457E0,1.181230474E1
1.244311917E1,-9.423795499E0,1.131228945E0,-5.484633903E0,1.096215351E1
1.245308617E1,-9.191089765E0,4.602995405E-1,-5.540137428E0,1.074156085E1
1.246305317E1,-9.063764890E0,4.633538336E-1,-5.306173958E0,1.051294501E1
1.247302017E1,-8.881479111E0,3.506478748E-1,-4.944294459E0,1.017102123E1
1.248298617E1,-8.471478782E0,9.599929422E-2,-4.853994446E0,9.764037622E0
1.249295317E1,-7.483698701E0,-2.775644034E-2,-4.543756970E0,8.755126731E0
1.250292017E1,-6.059726858E0,-1.634156442E-1,-4.458059886E0,7.524712102E0
1.251288717E1,-4.141821998E0,-6.127537018E-1,-3.984955235E0,5.780140551E0
1.252285417E1,-2.272194673E0,-8.237490168E-1,-2.691074000E0,3.617085892E0
1.253282017E1,-4.976267034E-1,-9.859194964E-1,-1.107762899E0,1.564227678E0
1.254278717E1,1.048549023E0,-1.827365988E0,9.243927544E-1,2.300700649E0
1.255275417E1,2.989291939E0,-2.958439690E0,3.183302554E0,5.274622910E0
1.256272117E1,5.142601023E0,-3.117057401E0,6.145675081E0,8.598355327E0
1.257268817E1,7.277750995E0,-2.562946595E0,8.511019408E0,1.148789825E1
1.258265417E1,8.938590621E0,-9.599563971E-1,9.836349893E0,1.332567814E1
1.259262117E1,1.119742967E1,1.345061037E0,1.164624323E1,1.621192776E1
1.260258817E1,1.527519250E1,2.572516440E0,1.321656562E1,2.036239066E1
1.261255517E1,1.882328880E1,3.444647951E0,1.522712254E1,2.445500075E1
1.262252217E1,2.204686113E1,3.167664760E0,1.717707072E1,2.812738780E1
1.263248917E1,2.560189106E1,6.525130141E-1,1.899652309E1,3.188652519E1
1.264245517E1,2.677150025E1,-9.791802880E-1,1.904250208E1,3.286774871E1
1.265242217E1,2.404427935E1,-1.227225900E0,1.791771180E1,3.001129536E1
1.266238917E1,1.932644171E1,-1.235941760E0,1.663992093E1,2.553283905E1
1.267235617E1,1.486329942E1,-6.274492165E-1,1.405308583E1,2.046461785E1
1.268232317E1,1.072784212E1,6.367407346E-1,1.059944662E1,1.509437988E1
1.269228917E1,7.051771898E0,2.100534163E0,7.138349281E0,1.025162237E1
1.270225617E1,4.298946623E0,3.202346058E0,3.593225700E0,6.453466764E0
1.271222317E1,2.126427680E0,3.930442521E0,-1.062181807E-1,4.470050938E0
1.272219017E1,8.966939092E-2,4.147052625E0,-3.044475621E0,5.145378303E0
1.273215717E1,-1.940196785E0,4.077784169E0,-5.158722382E0,6.856026831E0
1.274212317E1,-3.978775898E0,3.774982306E0,-6.663392233E0,8.630292295E0
1.275209017E1,-5.751348213E0,3.140958772E0,-7.212817081E0,9.745171036E0
1.276205717E1,-7.200225102E0,2.733667165E0,-7.258681471E0,1.058322420E1
1.277202417E1,-8.347955182E0,2.340157446E0,-7.113147781E0,1.121434635E1
1.278199117E1,-9.085226510E0,2.024673556E0,-6.919451162E0,1.159825194E1
1.279195717E1,-9.485350893E0,1.851103930E0,-6.757151751E0,1.179226726E1
1.280192417E1,-9.604508961E0,1.659902317E0,-6.632547585E0,1.178951040E1
1.281189117E1,-9.569590559E0,1.459232015E0,-6.669283887E0,1.175524432E1
1.282185817E1,-9.494638025E0,1.243436136E0,-6.815514565E0,1.175353238E1
1.283182517E1,-9.274213783E0,9.567907146E-1,-7.021101497E0,1.167143333E1
1.284179117E1,-9.053377311E0,7.760196573E-1,-7.189505986E0,1.158683924E1
1.285175817E1,-8.422503673E0,5.902667722E-1,-7.436998159E0,1.125148544E1
1.286172517E1,-7.899347441E0,2.160698211E-1,-7.391845375E0,1.082061709E1
1.287169217E1,-7.356135260E0,-6.072596580E-2,-7.224622609E0,1.031075096E1
1.288165917E1,-6.760736679E0,-2.036672920E-2,-6.768961372E0,9.566964686E0
1.289162517E1,-6.329324430E0,6.573966086E-2,-6.279141287E0,8.915844589E0
1.290159217E1,-5.804380705E0,-3.964207560E-2,-5.709955773E0,8.142235675E0
1.291155917E1,-5.193343745E0,-1.448966351E-1,-5.064370540E0,7.255319653E0
1.292152617E1,-4.492360237E0,-3.930033508E-1,-4.466079926E0,6.346780447E0
1.293149317E1,-3.725848153E0,-6.141997182E-1,-3.875850284E0,5.411229174E0
1.294145917E1,-2.801684609E0,-8.883098790E-1,-2.927040142E0,4.148023033E0
1.295142617E1,-1.854673070E0,-1.418112056E0,-1.840967489E0,2.973216322E0
1.296139317E1,-1.147290954E0,-2.014100913E0,-1.006773006E0,2.527146792E0
1.297136017E1,-3.648884761E-1,-2.472555365E0,-2.436061138E-1,2.511178522E0
1.298132717E1,2.523821998E-1,-2.843320293E0,3.674097955E-1,2.878047432E0
1.299129417E1,8.254713142E-1,-3.130786371E0,9.116195118E-1,3.363670068E0
1.300126017E1,1.278289050E0,-3.223208047E0,1.349080705E0,3.720633247E0
1.301122717E1,1.906800998E0,-2.859763248E0,1.796164661E0,3.878188155E0
1.302119417E1,2.996942436E0,-2.485059636E0,2.051861647E0,4.400831918E0
1.303116117E1,3.991171995E0,-2.083995021E0,1.883920258E0,4.880742226E0
1.304112817E1,4.584018266E0,-1.525311692E0,1.524915835E0,5.066080095E0
1.305109417E1,4.559275188E0,-1.207624864E0,8.936802542E-1,4.800417946E0
1.306106117E1,3.761883373E0,-1.112294199E0,1.611451703E-1,3.926185511E0
1.307102817E1,2.392275725E0,-8.390427017E-1,-4.886570746E-1,2.581813614E0
1.308099517E1,6.239768475E-1,-4.176625210E-1,-7.986536443E-1,1.096191923E0
1.309096217E1,-1.617371132E0,6.904725534E-1,-5.972369456E-1,1.857238190E0
1.310092817E1,-3.842266801E0,2.140063972E0,-1.833873940E-1,4.401876749E0
1.311089517E1,-5.413827630E0,3.041581834E0,1.189838219E-1,6.210870052E0
1.312086217E1,-5.733425328E0,5.428525191E0,1.410527340E0,8.020638323E0
1.313082917E1,-5.093161646E0,7.214144399E0,3.440332705E0,9.477344780E0
1.314079617E1,-3.309281985E0,6.259587028E0,6.152282435E0,9.379997664E0
1.315076217E1,-4.871198416E-1,3.728982553E0,8.827488846E0,9.595163153E0
1.316072917E1,2.667242503E0,1.397947933E0,1.093448623E1,1.134157970E1
1.317069617E1,4.515853765E0,-9.582621664E-2,1.185515372E1,1.268648051E1
1.318066317E1,5.303390098E0,-1.316132522E0,1.180867187E1,1.301164411E1
1.319063017E1,4.845054637E0,-2.273525792E0,1.169866820E1,1.286477017E1
1.320059617E1,3.501326766E0,-2.650358376E0,1.145969951E1,1.227226147E1
1.321056317E1,2.049317816E0,-2.291208795E0,9.866445512E0,1.033421929E1
1.322053017E1,6.470578542E-1,-2.041546867E0,7.512308543E0,7.811618086E0
1.323049717E1,-4.279159060E-1,-2.141204325E0,5.127569586E0,5.573135369E0
1.324046392E1,-4.533407691E-1,-2.369346015E0,2.779870402E0,3.680624654E0
1.325043092E1,-4.208983701E-1,-2.043439464E0,1.487129958E0,2.562099880E0
1.326039692E1,-1.167519397E0,-1.108700939E0,8.573591048E-1,1.824111824E0
1.327036392E1,-1.852942002E0,-1.009425888E0,-4.382172382E-1,2.155079821E0
1.328033092E1,-2.272685255E0,-1.671821574E0,-1.472616000E0,3.182559273E0
1.329029792E1,-2.600538929E0,-1.984311396E0,-2.093319576E0,3.883591287E0
1.330026492E1,-2.457009665E0,-2.458259215E0,-3.109186757E0,4.663365432E0
1.331023092E1,-2.652765090E0,-3.138041889E0,-3.819522886E0,5.610100230E0
1.332019792E1,-3.272334598E0,-3.471457142E0,-4.341500319E0,6.450411881E0
1.333016492E1,-3.863881618E0,-3.797173659E0,-4.859810963E0,7.277765560E0
1.334013192E1,-3.785740598E0,-4.319857435E0,-5.649875048E0,8.056927962E0
1.335009892E1,-3.260138184E0,-4.486371811E0,-6.876201062E0,8.833921782E0
1.336006492E1,-3.019290201E0,-4.182859511E0,-7.619218449E0,9.201354073E0
1.337003192E1,-2.872207000E0,-3.161820468E0,-7.801219468E0,8.894138908E0
1.337999892E1,-2.580203775E0,-3.034970972E0,-7.503732432E0,8.495557705E0
1.338996592E1,-2.664773224E0,-3.018066671E0,-6.778363110E0,7.883904440E0
1.339993292E1,-2.260415750E0,-3.597821612E0,-5.781529786E0,7.174948528E0
1.340989892E1,-1.093140182E0,-4.737036976E0,-4.317210401E0,6.501752104E0
1.341986592E1,7.838449860E-1,-5.657029701E0,-3.204220383E0,6.548543828E0
1.342983292E1,2.657445493E0,-5.937790777E0,-1.847333061E0,6.762545031E0
1.343979992E1,3.820164326E0,-6.204589872E0,4.345527881E-1,7.299275791E0
1.344976692E1,4.048162467E0,-5.576094296E0,1.861758142E0,7.137688024E0
1.345973292E1,3.637487369E0,-4.163516337E0,1.161189201E0,5.649295797E0
1.346969992E1,3.278337058E0,-3.078756677E0,1.969362697E0,4.909646216E0
1.347966692E1,3.611009714E0,-2.561189799E0,1.697968860E0,4.741537999E0
1.348963392E1,3.596928742E0,-1.556165695E0,8.261109996E-1,4.005247486E0
1.349960092E1,2.224719668E0,7.541364527E-1,1.193735973E0,2.634977222E0
1.350956792E1,4.139970477E-1,4.204673134E0,2.924781362E0,5.138581102E0
1.351953392E1,-4.820321792E-1,7.625156881E0,5.594626461E0,9.469699981E0
1.352950092E1,2.552922128E-1,7.599684656E0,7.444048147E0,1.064115754E1
1.353946792E1,1.907488046E0,6.897770855E0,6.522138705E0,9.682770611E0
1.354943492E1,3.136699953E0,9.388871834E0,4.587234235E0,1.091020251E1
1.355940192E1,2.898734356E0,1.230722418E1,4.002296907E0,1.326230781E1
1.356936792E1,3.122538289E0,1.280336043E1,6.568432866E0,1.472482917E1
1.357933492E1,3.337726350E0,1.072632886E1,7.258230650E0,1.337447046E1
1.358930192E1,2.654549660E0,1.090142724E1,3.643145134E0,1.179662054E1
1.359926892E1,1.920558181E0,1.104346546E1,3.612446083E0,1.177694527E1
1.360923592E1,1.542145972E0,1.072495593E1,2.538660477E0,1.112868775E1
1.361920192E1,1.782591081E0,9.337131577E0,2.397405195E0,9.803428417E0
1.362916892E1,2.348191666E0,7.635196550E0,2.319260082E0,8.318004436E0
1.363913592E1,2.986575322E0,5.262301129E0,1.989985827E0,6.369575254E0
1.364910292E1,3.504072911E0,2.610035684E0,1.805889750E0,4.727795578E0
1.365906992E1,3.040580206E0,4.035625452E-1,1.630542278E0,3.473709665E0
1.366903592E1,1.818072132E0,-9.427383935E-1,1.577891609E0,2.585320847E0
1.367900292E1,1.524197651E0,7.864271164E-1,2.478327152E0,3.013926270E0
1.368896992E1,1.157279460E0,8.191668463E-1,1.176739286E0,1.842564902E0
1.369893692E1,1.485061213E-1,-4.745062864E0,-3.015923667E0,5.624364073E0
1.370890392E1,-4.130347422E-1,-6.191025501E0,-8.450697777E0,1.048397288E1
1.371887092E1,-1.100838919E0,-3.655831254E0,-1.095737457E1,1.160349111E1
1.372883692E1,-1.592024329E0,-2.932018461E0,-1.182132056E1,1.228311416E1
1.373880392E1,-1.151173798E0,-4.121198283E0,-9.569878827E0,1.048294125E1
1.374877092E1,-6.437576857E-1,-6.393242099E0,-6.505446074E0,9.143784616E0
1.375873792E1,-1.337507165E0,-7.850609729E0,-5.411921437E0,9.628597623E0
1.376870492E1,-1.611518362E0,-9.055108087E0,-3.613119682E0,9.881629812E0
1.377867092E1,-2.324786870E0,-9.338137883E0,-3.369833411E0,1.019613801E1
1.378863792E1,-3.090613076E0,-8.974970827E0,-3.541300086E0,1.013127814E1
1.379860492E1,-4.118102767E0,-8.626532323E0,-4.233030376E0,1.045439508E1
1.380857192E1,-4.589671939E0,-9.014343638E0,-5.165782894E0,1.135820376E1
1.381853892E1,-4.311589472E0,-9.703640317E0,-6.258719886E0,1.232566484E1
1.382850492E1,-4.169266197E0,-9.813066280E0,-6.656264477E0,1.256920472E1
1.383847192E1,-3.888381452E0,-9.516504858E0,-6.303363377E0,1.205884592E1
1.384843892E1,-3.435449111E0,-9.856973022E0,-6.042933655E0,1.206147897E1
1.385840592E1,-3.277026404E0,-1.004005519E1,-5.654710110E0,1.197987298E1
1.386837292E1,-3.279903527E0,-9.797830190E0,-5.149339355E0,1.154430333E1
1.387833892E1,-2.996569383E0,-9.525991380E0,-4.641220992E0,1.101203306E1
1.388830592E1,-3.235726058E0,-8.535047956E0,-3.197090581E0,9.671522885E0
1.389827292E1,-3.021678789E0,-7.347071491E0,-2.343555263E0,8.282647733E0
1.390823992E1,-2.624085666E0,-6.657481867E0,-2.580715698E0,7.607100887E0
1.391820692E1,-8.022087514E-1,-5.682127705E0,-3.547477085E0,6.746458908E0
1.392817292E1,-1.284644973E-1,-4.998548434E0,-2.954196950E0,5.807690521E0
1.393813992E1,4.740226632E-1,-3.999721794E0,-1.517389299E0,4.304061128E0
1.394810692E1,9.702893043E-1,-1.990986285E0,-7.649947321E-1,2.343225269E0
1.395807392E1,1.285485511E0,-4.389504790E-3,1.177235130E0,1.743093462E0
1.396804092E1,2.001150793E0,2.328688717E0,2.825612000E0,4.172706413E0
1.397800692E1,3.283750117E0,3.731387220E0,3.657077880E0,6.170938668E0
1.398797392E1,4.939765205E0,6.078502852E0,4.170957212E0,8.873914653E0
1.399794092E1,7.610815415E0,8.241397278E0,4.781897984E0,1.219474021E1
1.400790792E1,1.050703722E1,1.036473003E1,5.304154329E0,1.568309641E1
1.401787492E1,1.170807988E1,1.279151748E1,7.689104955E0,1.896903764E1
1.402784192E1,1.201334780E1,1.431881606E1,1.015470038E1,2.127127073E1
1.403780792E1,1.059418412E1,1.802946379E1,1.062756705E1,2.345726930E1
1.404777492E1,9.492507300E0,2.114891124E1,1.271252043E1,2.643846283E1
1.405774192E1,9.177582112E0,2.360959968E1,1.267901705E1,2.832664265E1
1.406770892E1,8.365609095E0,2.581295918E1,1.292550526E1,3.005596385E1
1.407767592E1,8.595780061E0,1.790737392E1,1.386778874E1,2.422554520E1
1.408764192E1,8.511581910E0,1.359354380E1,1.214463767E1,2.011774550E1
1.409760892E1,7.442285212E0,1.022970378E1,1.144943531E1,1.706235674E1
1.410757592E1,5.650033507E0,6.173454618E0,9.225094832E0,1.245539221E1
1.411754292E1,3.780808764E0,3.216793651E0,6.481187146E0,8.163826500E0
1.412750992E1,1.474143292E0,2.604653907E-1,3.311465335E0,3.634108327E0
1.413747692E1,-1.031806106E0,-2.604702439E0,6.993217295E-1,2.887585413E0
1.414744292E1,-3.249152435E0,-5.231145995E0,-1.254396157E0,6.284535757E0
1.415740992E1,-5.290822678E0,-7.002654701E0,-2.771888952E0,9.203985324E0
1.416737692E1,-6.820067207E0,-7.710534416E0,-4.695210088E0,1.131417940E1
1.417734392E1,-7.688379900E0,-8.065006077E0,-6.250585824E0,1.277596696E1
1.418731092E1,-7.807808111E0,-8.314692711E0,-6.171616253E0,1.296860939E1
1.419727692E1,-6.309210593E0,-9.182379752E0,-5.947157432E0,1.262897137E1
1.420724392E1,-4.946939739E0,-9.850397243E0,-4.983059160E0,1.209683501E1
1.421721092E1,-5.062007096E0,-9.356187653E0,-6.210145311E0,1.231779477E1
1.422717792E1,-3.828153669E0,-1.037027786E1,-8.295226160E0,1.382057164E1
1.423714542E1,-3.136535061E0,-1.038580690E1,-8.113895232E0,1.354762463E1
1.424711142E1,-2.287292769E0,-1.072936239E1,-8.173256165E0,1.368038895E1
1.425707842E1,-1.388645890E0,-1.030900489E1,-7.851756368E0,1.303280466E1
1.426704542E1,-6.163740054E-1,-9.676738447E0,-6.486863623E0,1.166612976E1
1.427701242E1,6.996804562E-1,-8.964056414E0,-5.372393675E0,1.047408583E1
1.428697942E1,2.123268430E0,-7.967517790E0,-4.801328866E0,9.541612413E0
1.429694542E1,3.115424859E0,-6.871468325E0,-4.626389530E0,8.850221979E0
1.430691242E1,3.912742122E0,-5.608416535E0,-4.633735971E0,8.260471899E0
1.431687942E1,4.555509582E0,-4.791635937E0,-4.612576067E0,8.061532142E0
1.432684642E1,4.536671315E0,-4.693098659E0,-4.260192739E0,7.794600940E0
1.433681342E1,4.201766191E0,-5.260711856E0,-3.207650360E0,7.457811286E0
1.434678042E1,4.425314893E0,-5.330551584E0,-1.550119966E0,7.099370677E0
1.435674642E1,4.364098638E0,-5.680872307E0,2.087605092E-1,7.166676220E0
1.436671342E1,3.287656935E0,-5.737292676E0,2.207969734E0,6.971394818E0
1.437668042E1,2.092094876E0,-5.364125127E0,3.104845491E0,6.541465041E0
1.438664742E1,1.331194365E0,-6.272027564E0,2.898889599E0,7.036616311E0
1.439661442E1,-1.139172095E-1,-4.860237225E0,3.186273232E0,5.812677535E0
1.440658042E1,-1.761486872E0,-4.065533960E0,3.271045872E0,5.507371739E0
1.441654742E1,-3.485075015E0,-3.158257175E0,2.299530407E0,5.235281877E0
1.442651442E1,-3.357191438E0,-4.556927531E0,2.248005912E0,6.090143960E0
1.443648142E1,-3.941935515E0,-7.405381680E-1,-2.962298852E-1,4.021816074E0
1.444644842E1,-2.684766608E0,-4.830203587E-1,2.389974554E0,3.626742171E0
1.445641442E1,-3.475405767E0,2.760306787E-1,2.626754628E0,4.365143532E0
1.446638142E1,-3.136966001E0,-5.776095968E-1,4.192049580E0,5.267586565E0
1.447634842E1,-3.381617012E0,-1.243968233E0,3.534914342E0,5.047614287E0
1.448631542E1,-3.695927950E0,4.719256178E0,2.218723056E0,6.391712938E0
1.449628242E1,-3.143644691E0,8.799778306E0,1.918177925E0,9.539287538E0
1.450624942E1,-1.932829294E0,1.300389888E1,-2.627072132E-1,1.314938136E1
1.451621542E1,3.151751563E-1,1.798531614E1,-2.269772172E0,1.813071421E1
1.452618242E1,3.368158476E0,1.504983262E1,4.374418974E-1,1.542832813E1
1.453614942E1,2.876148900E0,9.169933369E0,1.773352334E0,9.772650050E0
1.454611642E1,3.588857830E0,1.013924385E1,4.494027278E0,1.165677689E1
1.455608342E1,4.538162647E0,1.028064239E1,4.598606485E0,1.214222837E1
1.456604942E1,5.532767597E0,9.584835420E0,4.450957857E0,1.192860483E1
1.457601642E1,6.544409580E0,7.494584463E0,4.179406146E0,1.079191960E1
1.458598342E1,7.460216283E0,5.712206367E0,3.905848839E0,1.017545005E1
1.459595042E1,7.203926974E0,4.873240848E0,3.019208925E0,9.206555422E0
1.460591742E1,6.428195584E0,3.119790682E0,1.655109354E0,7.334451537E0
1.461588342E1,5.675891649E0,1.040720186E0,1.775702915E0,6.037546303E0
1.462585042E1,3.907647735E0,4.790079993E-1,2.224450403E0,4.521873404E0
1.463581742E1,1.254465739E0,-3.162320405E-1,1.990099263E0,2.373643206E0
1.464578442E1,-3.375133473E-1,-1.233440321E0,1.587341294E0,2.038367648E0
1.465575142E1,-1.120895380E0,-2.141881287E0,1.286745878E0,2.738572046E0
1.466571742E1,-1.527297991E0,-2.321512429E0,9.104032910E-1,2.924191044E0
1.467568442E1,-2.261484621E0,-4.312492867E0,1.783330607E-1,4.872751800E0
1.468565142E1,-2.356745119E0,-4.877856640E0,-1.271440206E0,5.564556870E0
1.469561842E1,-2.295917120E0,-5.461552019E0,-2.819983470E0,6.561409349E0
1.470558542E1,-2.192907306E0,-6.450471722E0,-4.358637339E0,8.087963114E0
1.471555242E1,-2.526142465E0,-7.433371716E0,-5.736982774E0,9.723650661E0
1.472551842E1,-2.659783503E0,-8.325103093E0,-7.181936765E0,1.131202924E1
1.473548542E1,-2.387284981E0,-8.950041223E0,-8.400400613E0,1.250476301E1
1.474545242E1,-2.822664419E0,-8.952352043E0,-8.023590834E0,1.234868622E1
1.475541942E1,-3.803260025E0,-8.330974283E0,-6.659535994E0,1.132339785E1
1.476538642E1,-4.763512876E0,-8.069349974E0,-5.538943427E0,1.088509799E1
1.477535242E1,-5.293067424E0,-7.854767100E0,-4.904737460E0,1.066631982E1
1.478531942E1,-4.928598778E0,-6.686675261E0,-4.310631114E0,9.358645872E0
1.479528642E1,-4.843770297E0,-7.507938334E0,-4.053357718E0,9.811266865E0
1.480525342E1,-4.235900189E0,-7.240459793E0,-4.523825859E0,9.530588063E0
1.481522042E1,-3.546999367E0,-6.531504775E0,-4.768316072E0,8.830549094E0
1.482518642E1,-3.438835818E0,-5.880883920E0,-4.865503228E0,8.371589403E0
1.483515342E1,-3.961471648E0,-6.877315541E0,-4.424345425E0,9.086559255E0
1.484512042E1,-3.162226265E0,-7.977408940E0,-3.279836868E0,9.186732728E0
1.485508742E1,-2.905566242E0,-7.949260443E0,-1.216392179E0,8.550594524E0
1.486505442E1,-4.091941740E0,-6.787597033E0,1.329861492E-1,7.926736151E0
1.487502142E1,-4.421204593E0,-5.823508701E0,5.821604848E-2,7.311887086E0
1.488498742E1,-4.286504625E0,-5.271353788E0,2.943131679E-1,6.800581806E0
1.489495442E1,-4.495970308E0,-5.061369749E0,5.141561973E-1,6.789371793E0
1.490492142E1,-5.345370183E0,-4.206515007E0,1.031751142E0,6.879844571E0
1.491488842E1,-7.188824785E0,-2.477065907E0,3.488312618E0,8.365607104E0
1.492485542E1,-8.532691528E0,-1.351798491E0,6.705298643E0,1.093595966E1
1.493482142E1,-8.720710502E0,-7.738971180E-1,8.571091363E0,1.225207393E1
1.494478842E1,-7.740334750E0,-1.294398714E0,1.111898576E1,1.360955894E1
1.495475542E1,-6.745335698E0,-1.218999453E0,1.403696857E1,1.562120354E1
1.496472242E1,-5.397148447E0,-1.007583430E0,1.396982967E1,1.501001588E1
1.497468942E1,-3.941495512E0,-1.399923999E0,1.354276307E1,1.417397635E1
1.498465542E1,-1.084707620E0,-1.247904578E0,1.338832524E1,1.349003741E1
1.499462242E1,2.166175590E0,-1.349426275E-1,1.248399604E1,1.267125421E1
1.500458942E1,5.596292918E0,6.492338955E-1,1.134770779E1,1.266927272E1
1.501455642E1,7.832644159E0,1.858185785E0,9.826851676E0,1.270315641E1
1.502452342E1,9.539066924E0,2.956682309E0,8.157680937E0,1.289509699E1
1.503449042E1,9.720392590E0,3.721004027E0,7.082648705E0,1.258951213E1
1.504445642E1,8.054730181E0,6.005514983E0,5.600263177E0,1.150251434E1
1.505442342E1,6.345270372E0,8.582022732E0,-2.376872697E0,1.093449103E1
1.506439042E1,4.395913046E0,6.826211461E0,-7.988282422E0,1.139007772E1
1.507435742E1,4.639840465E0,2.129322052E-1,-3.132865641E0,5.602526822E0
1.508432442E1,7.567220914E-1,-3.048516632E0,4.787162817E0,5.725644926E0
1.509429042E1,-1.576268422E0,-4.072778660E0,7.198579695E0,8.419720766E0
1.510425742E1,-2.825203280E0,-2.887494838E0,6.184183674E0,7.386712917E0
1.511422442E1,-4.838103760E0,-1.369233280E0,5.010966166E0,7.098720285E0
1.512419142E1,-4.962758796E0,3.673737621E-1,2.922706186E0,5.771148048E0
1.513415842E1,-3.342655553E0,1.842749574E0,3.702234757E-1,3.834858219E0
1.514412442E1,-1.557955089E0,2.381159584E0,-1.288772523E0,3.123792509E0
1.515409142E1,2.980410603E-1,2.636659811E0,-2.146449131E0,3.412923572E0
1.516405842E1,1.580343639E0,3.215997260E0,-3.149083478E0,4.770414149E0
1.517402542E1,2.340542777E0,3.958575522E0,-4.225578684E0,6.245316315E0
1.518399242E1,2.865231856E0,4.209718696E0,-5.959643576E0,7.838918079E0
1.519395942E1,3.635201400E0,4.104488988E0,-7.815241676E0,9.546702128E0
1.520392542E1,4.968903050E0,3.669954033E0,-9.746493391E0,1.153918080E1
1.521389242E1,4.167856141E0,3.024057436E0,-9.999225254E0,1.124724206E1
1.522385942E1,3.100636666E0,2.822372058E0,-8.244619094E0,9.249512191E0
1.523382554E1,2.067636120E0,3.388355928E0,-7.824269777E0,8.773555298E0
1.524379254E1,1.356150866E0,3.749135858E0,-8.238622774E0,9.152599088E0
1.525375854E1,7.817644005E-1,4.235854581E0,-9.266956803E0,1.021910505E1
1.526372554E1,4.635799746E-1,4.683039109E0,-9.479534667E0,1.058335198E1
1.527369254E1,4.032994205E-1,5.111930038E0,-9.680741451E0,1.095496391E1
1.528365954E1,6.777155368E-1,4.818401274E0,-8.848296747E0,1.009795249E1
1.529362654E1,-1.305820665E-1,3.576657322E0,-6.559041653E0,7.471984788E0
1.530359254E1,-1.456309869E0,7.687511297E-1,-3.871905752E0,4.207549274E0
1.531355954E1,-1.668407092E0,-2.976860466E0,7.662776113E-2,3.413378425E0
1.532352654E1,-1.134079901E0,-6.198702310E0,3.937902691E0,7.430822643E0
1.533349354E1,-1.036754605E0,-8.647498684E0,9.515288052E0,1.289941085E1
1.534346054E1,2.394104442E-1,-9.653059562E0,1.499592714E1,1.783582650E1
1.535342754E1,2.182854188E0,-8.944033794E0,1.830059684E1,2.048590827E1
1.536339354E1,3.773746789E0,-8.280981174E0,2.145290798E1,2.330328464E1
1.537336054E1,5.453101038E0,-8.486166987E0,2.453316271E1,2.652597621E1
1.538332754E1,5.836235166E0,-8.051998361E0,2.551056457E1,2.738038026E1
1.539329454E1,4.597689933E0,-6.334952960E0,2.546462651E1,2.664052523E1
1.540326154E1,5.863312452E0,-4.983878939E0,2.393585560E1,2.514244749E1
1.541322754E1,6.041764212E0,-4.186202365E0,2.185803115E1,2.306080507E1
1.542319454E1,5.143188668E0,-4.526100718E0,2.003264970E1,2.117179802E1
1.543316154E1,4.246031367E0,-4.547211798E0,1.592555373E1,1.709763666E1
1.544312854E1,3.922896104E0,-3.793114522E0,1.107608240E1,1.234732493E1
1.545309554E1,3.740177632E0,-2.889743384E0,7.119225377E0,8.545344669E0
1.546306154E1,3.125092060E0,-2.485733527E0,3.949308854E0,5.616236461E0
1.547302854E1,2.059127690E0,-1.848691807E0,1.946704152E0,3.383389616E0
1.548299554E1,1.158537781E0,-1.082117011E0,3.054819345E-2,1.585597745E0
1.549296254E1,9.701922405E-1,-4.939001998E-1,-2.099083761E0,2.364606315E0
1.550292954E1,7.042540021E-1,6.005823204E-2,-4.364743001E0,4.421601764E0
1.551289654E1,-2.199254751E-2,7.920940916E-1,-6.435887012E0,6.484484432E0
1.552286254E1,-4.132228763E-1,1.332121148E0,-7.976761068E0,8.097778525E0
1.553282954E1,-6.994942224E-1,1.675145277E0,-9.160149808E0,9.338294725E0
1.554279654E1,-9.756038386E-1,2.076633376E0,-9.887952740E0,1.015065606E1
1.555276354E1,-9.306510293E-1,2.267478017E0,-1.018362071E1,1.047443071E1
1.556273054E1,-5.419547376E-1,1.586236463E0,-1.010592057E1,1.024399783E1
1.557269654E1,-5.606412694E-2,6.463499026E-1,-9.715951045E0,9.737587796E0
1.558266354E1,3.935551818E-1,3.314807384E-1,-9.672269420E0,9.685946567E0
1.559263054E1,7.124501905E-1,2.029543702E-1,-1.018444867E1,1.021135498E1
1.560259754E1,1.005270126E0,5.239536457E-2,-1.094265011E1,1.098885366E1
1.561256454E1,1.087330243E0,1.735003370E-1,-1.194814667E1,1.199877487E1
1.562253054E1,9.715704292E-1,8.283868821E-1,-1.271199184E1,1.277595047E1
1.563249754E1,6.257391983E-1,1.684935563E0,-1.319560569E1,1.331745347E1
1.564246454E1,1.943953621E-1,2.230536770E0,-1.331002635E1,1.349703246E1
1.565243154E1,1.292186420E-1,2.230646406E0,-1.297594919E1,1.316691832E1
1.566239854E1,4.119606087E-1,2.040473610E0,-1.231891861E1,1.249355834E1
1.567236554E1,9.217436734E-1,1.488524227E0,-1.134892167E1,1.148317634E1
1.568233154E1,1.398853520E0,7.955670454E-1,-1.049028378E1,1.061300014E1
1.569229854E1,1.832222686E0,3.510915323E-1,-9.864203689E0,1.003906468E1
1.570226554E1,2.247581696E0,-6.992904469E-2,-9.526771399E0,9.788558977E0
1.571223254E1,2.458291082E0,-3.119757061E-1,-9.416674760E0,9.737262830E0
1.572219954E1,2.384129969E0,-2.220488915E-1,-8.974141692E0,9.288089175E0
1.573216554E1,2.421966425E0,3.890079483E-2,-8.012961765E0,8.371080628E0
1.574213254E1,3.196410257E0,-2.450386816E-1,-6.732118067E0,7.456439911E0
1.575209954E1,4.864645441E0,-1.250951270E0,-5.409994780E0,7.382255608E0
1.576206654E1,6.471009482E0,-2.641531711E0,-4.080837293E0,8.093508912E0
1.577203354E1,7.139590645E0,-4.388824174E0,-2.183439202E0,8.660423717E0
1.578200054E1,5.648909088E0,-5.175669951E0,1.764749910E0,7.862065605E0
1.579196654E1,2.647120480E0,-2.983505826E0,8.300789786E0,9.209324890E0
1.580193354E1,2.730310571E-1,-4.017364597E-1,1.489192037E1,1.489983995E1
1.581190054E1,1.417830805E0,-2.268363724E0,2.065629034E1,2.082877934E1
1.582186754E1,4.447020342E0,-5.821228287E0,2.409963143E1,2.518838867E1
1.583183454E1,7.556697680E0,-8.067573005E0,2.433596186E1,2.672879446E1
1.584180054E1,8.470607547E0,-8.507703452E0,2.239344665E1,2.540863363E1
1.585176754E1,7.095666361E0,-7.518172715E0,2.152373413E1,2.387765761E1
1.586173454E1,4.857495758E0,-5.768864717E0,1.987331542E1,2.125614572E1
1.587170154E1,2.935006388E0,-4.286965970E0,1.716092188E1,1.793013050E1
1.588166854E1,1.436921087E0,-3.236577705E0,1.409071383E1,1.452888137E1
1.589163554E1,-8.260536969E-2,-2.099455352E0,1.065461159E1,1.085980131E1
1.590160154E1,-1.093634272E0,-1.166749684E0,7.414232610E0,7.584733742E0
1.591156854E1,-1.917226291E0,-2.696613250E-1,4.480290415E0,4.880724954E0
1.592153554E1,-2.641895700E0,7.916655638E-1,1.924844921E0,3.363238800E0
1.593150254E1,-2.989974893E0,1.766116989E0,-2.915035808E-1,3.484837646E0
1.594146954E1,-3.190077723E0,2.568621025E0,-2.025188988E0,4.569004299E0
1.595143554E1,-3.883308115E0,3.251077923E0,-3.257235918E0,6.021559217E0
1.596140254E1,-4.489360908E0,3.543648328E0,-4.471148878E0,7.259681613E0
1.597136954E1,-4.732001646E0,3.523802586E0,-6.132412426E0,8.509730102E0
1.598133654E1,-4.630233197E0,3.244534011E0,-7.972818875E0,9.774042215E0
1.599130354E1,-4.196814476E0,3.309200124E0,-9.609322389E0,1.099559612E1
1.600126954E1,-4.332268443E0,4.036157548E0,-1.080612230E1,1.232198835E1
1.601123654E1,-4.444352258E0,4.526845653E0,-1.132013232E1,1.297651703E1
1.602120354E1,-4.116819888E0,4.639088805E0,-1.150845126E1,1.307340052E1
1.603117054E1,-3.431122464E0,4.512326725E0,-1.176563870E1,1.306001331E1
1.604113754E1,-2.997544406E0,3.914886881E0,-1.172697457E1,1.272138138E1
1.605110454E1,-2.498671661E0,3.163717597E0,-1.118682750E1,1.189107138E1
1.606107054E1,-2.072094475E0,2.870991071E0,-1.069039187E1,1.126146721E1
1.607103754E1,-1.892512742E0,2.779821577E0,-1.012084032E1,1.066491544E1
1.608100454E1,-2.043668821E0,2.668958369E0,-9.610478969E0,1.018141577E1
1.609097154E1,-2.439500470E0,2.529136240E0,-9.047927706E0,9.706322086E0
1.610093854E1,-2.627242870E0,2.252963766E0,-8.391085414E0,9.076814708E0
1.611090454E1,-2.463822548E0,1.900490390E0,-7.884756299E0,8.476536272E0
1.612087154E1,-2.085712933E0,1.626326728E0,-7.547943229E0,7.997911231E0
1.613083854E1,-1.610692150E0,1.326842282E0,-6.998586794E0,7.303085427E0
1.614080554E1,-1.098867238E0,8.720628056E-1,-5.939263106E0,6.102691946E0
1.615077254E1,-4.540892127E-1,2.697335199E-1,-4.481948100E0,4.512960443E0
1.616073954E1,4.595829642E-1,-5.953046601E-1,-2.548690791E0,2.657334922E0
1.617070554E1,1.415633129E0,-1.802271201E0,3.202537555E-1,2.314035675E0
1.618067254E1,2.415685638E0,-3.246540484E0,3.847054501E0,5.583492684E0
1.619063954E1,3.807207481E0,-4.783853001E0,7.758221968E0,9.877757156E0
1.620060654E1,4.866636126E0,-5.267143793E0,1.246395880E1,1.437975034E1
1.621057354E1,5.541409197E0,-5.273850549E0,1.717075222E1,1.879775113E1
1.622053954E1,6.336342843E0,-5.812576162E0,2.059775503E1,2.232045686E1
1.623050654E1,7.311975918E0,-6.197953867E0,2.418793375E1,2.601798922E1
1.624047392E1,7.581684002E0,-6.339485722E0,2.544263162E1,2.729466093E1
1.625044092E1,7.017806007E0,-6.083540813E0,2.385851565E1,2.560249673E1
1.626040792E1,6.450763498E0,-4.909840910E0,2.251786137E1,2.393267574E1
1.627037392E1,5.516554438E0,-4.320385146E0,2.069324708E1,2.184739287E1
1.628034092E1,4.526367936E0,-4.402049991E0,1.801800324E1,1.909226261E1
1.629030792E1,3.914612354E0,-4.057437905E0,1.464742256E1,1.569503042E1
1.630027492E1,3.197528245E0,-3.145561700E0,1.088338507E1,1.177144069E1
1.631024192E1,2.051654364E0,-2.151410786E0,7.372345496E0,7.949171788E0
1.632020892E1,7.434816563E-1,-9.124689661E-1,4.389894800E0,4.544946748E0
1.633017492E1,-4.536524257E-1,3.511176986E-1,2.012085378E0,2.092264737E0
1.634014192E1,-1.454500448E0,1.431946276E0,-2.844845831E-2,2.041286606E0
1.635010892E1,-2.204309669E0,2.256457770E0,-1.894945768E0,3.679864433E0
1.636007592E1,-2.779306438E0,2.932007059E0,-3.549328898E0,5.377633801E0
1.637004292E1,-3.102901585E0,3.485465609E0,-5.135507766E0,6.939013530E0
1.638000892E1,-3.200207147E0,3.743790334E0,-6.485425792E0,8.143588862E0
1.638997592E1,-3.388633963E0,3.835817322E0,-7.510646179E0,9.088792037E0
1.639994292E1,-3.307638040E0,3.717946225E0,-8.378259546E0,9.744681963E0
1.640990992E1,-3.435122836E0,3.497590980E0,-8.944895673E0,1.020021422E1
1.641987692E1,-3.557603293E0,3.149116223E0,-9.034798368E0,1.020789184E1
1.642984392E1,-3.467538046E0,2.737609066E0,-9.117930572E0,1.013187946E1
1.643980992E1,-3.141827084E0,2.307789160E0,-9.231931397E0,1.002125369E1
1.644977692E1,-2.950557058E0,1.982219993E0,-9.482122060E0,1.012648122E1
1.645974392E1,-2.801269457E0,1.878754536E0,-9.286109358E0,9.879709317E0
1.646971092E1,-2.364651140E0,1.704054496E0,-9.495369512E0,9.932644104E0
1.647967792E1,-2.020696426E0,1.313506391E0,-9.423712469E0,9.727017517E0
1.648964492E1,-1.820227415E0,9.903777060E-1,-9.078326796E0,9.311825452E0
1.649961092E1,-1.780146214E0,8.182491258E-1,-8.656254305E0,8.875200886E0
