"Time (s)","Linear Acceleration x (m/s^2)","Linear Acceleration y (m/s^2)","Linear Acceleration z (m/s^2)","Absolute acceleration (m/s^2)"
1.016295490E-1,8.897304535E-2,-1.448141098E0,-1.253662109E-1,1.456277971E0
1.066764760E-1,6.418161392E-1,-1.198705196E0,-9.180641174E-2,1.362809789E0
1.117234030E-1,6.946954727E-1,-9.472951293E-1,-4.126729965E-1,1.245097933E0
1.167703300E-1,6.172580719E-1,-7.709593177E-1,-6.820516586E-1,1.200241751E0
1.218172570E-1,5.399117470E-1,-5.874631405E-1,-7.551984787E-1,1.098609293E0
1.268641840E-1,4.242477417E-1,-3.322574496E-1,-7.768344879E-1,9.454379836E-1
1.319111110E-1,2.016301155E-1,-1.331573725E-1,-9.859952927E-1,1.015171073E0
1.369580390E-1,-1.362876892E-1,5.882018805E-2,-1.302941322E0,1.311369604E0
1.420049660E-1,-5.410089493E-1,2.467494011E-1,-1.675896645E0,1.778259124E0
1.470518930E-1,-1.015925884E0,3.395154476E-1,-2.113343239E0,2.369302806E0
1.520988200E-1,-1.454552412E0,3.841295242E-1,-2.494462967E0,2.913009390E0
1.571457470E-1,-1.803051949E0,4.178219140E-1,-2.660967827E0,3.241345593E0
1.621926740E-1,-2.040477514E0,4.397939444E-1,-2.616843700E0,3.347362865E0
1.672396010E-1,-2.157137871E0,4.251668751E-1,-2.442088127E0,3.286001383E0
1.722865280E-1,-2.123578072E0,4.034475684E-1,-2.137670040E0,3.040063645E0
1.773334550E-1,-2.028634548E0,3.649519682E-1,-1.686635494E0,2.663322617E0
1.823803820E-1,-1.753466606E0,4.328072965E-1,-1.111886978E0,2.120910169E0
1.874273090E-1,-1.183773994E0,6.344184875E-1,-3.079919815E-1,1.377921169E0
1.924742360E-1,-4.816620350E-1,9.758747220E-1,5.091190338E-1,1.201470757E0
1.975211640E-1,-2.819051743E-1,1.297783375E0,5.377578735E-1,1.432792988E0
2.025680910E-1,-1.363167763E-1,1.349878192E0,-4.719600677E-1,1.436488671E0
2.076150180E-1,1.983165741E-1,1.296981573E0,-1.656817436E0,2.113417773E0
2.126619450E-1,4.209866524E-1,1.278317809E0,-2.380290985E0,2.734430719E0
2.177088720E-1,3.472430706E-1,1.293663740E0,-2.538023949E0,2.869792534E0
2.227557990E-1,2.598216534E-1,1.832086682E0,-1.806650162E0,2.586123298E0
2.278027260E-1,6.170248985E-1,2.080571175E0,-2.095297813E0,3.016582348E0
2.328496530E-1,1.286216497E0,2.045661449E0,-1.077881813E0,2.645923817E0
2.378965800E-1,1.084905863E0,1.676971316E0,9.473323822E-1,2.210586386E0
2.429435070E-1,7.438066006E-1,1.288643599E0,1.986241341E0,2.481734322E0
2.479904340E-1,2.839248180E-1,7.392284870E-1,1.801605225E0,1.967956667E0
2.530373610E-1,-4.989075661E-2,4.556155801E-1,6.018371582E-1,7.564936281E-1
2.580842890E-1,-1.627900600E-1,2.601147890E-1,-1.090839386E0,1.133177335E0
2.631287680E-1,-1.624345779E-3,1.343894005E-1,-2.432146072E0,2.435856660E0
2.680766320E-1,2.468054295E-1,-7.296574116E-2,-2.779517174E0,2.791406928E0
2.730246530E-1,4.672305584E-1,-3.075762987E-1,-2.117897511E0,2.190524467E0
2.779725180E-1,7.637662888E-1,-6.297397017E-1,-1.014352798E0,1.417329403E0
2.829205390E-1,1.119335175E0,-9.763687849E-1,7.405281067E-2,1.487175530E0
2.878685070E-1,1.440525293E0,-1.545672178E0,7.706403732E-1,2.249022496E0
2.928163720E-1,8.552913666E-1,-3.783104420E0,1.235740662E0,4.070682664E0
2.977643930E-1,-3.528662920E-1,-6.178448677E0,4.860115051E-1,6.207571978E0
3.027123610E-1,-9.334686399E-1,-6.850375175E0,-1.197919846E0,7.016695497E0
3.076602260E-1,-4.752197266E-1,-5.438424110E0,-2.778174400E0,6.125401505E0
3.126082470E-1,5.160270929E-1,-3.599200964E0,-3.922769070E0,5.348705331E0
3.175562160E-1,1.286216736E0,-2.551062107E0,-4.270683289E0,5.138191035E0
3.225040800E-1,1.853151321E0,-2.340602398E0,-4.074422836E0,5.051090066E0
3.274521010E-1,2.340989351E0,-2.527531862E0,-3.247604847E0,4.734510080E0
3.323999660E-1,3.197557211E0,-2.534739017E0,-2.011441708E0,4.549194626E0
3.373479860E-1,3.663822889E0,-2.372145653E0,-1.317426205E0,4.559197843E0
3.422959550E-1,3.297524214E0,-2.075926304E0,-1.204888344E0,4.078589447E0
3.472438200E-1,3.019301653E0,-1.610687375E0,-1.157378674E0,3.612481375E0
3.521918410E-1,2.218558788E0,-9.846612215E-1,-2.677376747E0,3.613849342E0
3.571398090E-1,2.465322495E0,-6.007806659E-1,-2.338183880E0,3.450486381E0
3.620876740E-1,3.519713402E0,-2.743304372E-1,-4.964183331E0,6.091531479E0
3.670356950E-1,3.240512371E0,-6.288692355E-1,-1.685706139E0,3.706481098E0
3.719836640E-1,3.954300880E0,-8.099242449E-1,-3.401677608E0,5.278625132E0
3.769315280E-1,3.933616400E0,-7.511200309E-1,-3.249227047E0,5.157033613E0
3.818795490E-1,4.066113472E0,-8.077014089E-1,-3.244571209E0,5.264304575E0
3.868274140E-1,4.037140369E0,-6.411953568E-1,-3.623817444E0,5.462754499E0
3.917754340E-1,3.875375271E0,-4.085665941E-1,-3.594660759E0,5.301607881E0
3.967234030E-1,3.605445623E0,-1.424876451E-1,-3.629383564E0,5.117808704E0
4.016712680E-1,3.210938692E0,7.427668571E-2,-3.397631168E0,4.675418897E0
4.066192890E-1,2.882863283E0,1.321265697E-1,-2.996119022E0,4.159938381E0
4.115672570E-1,2.442125082E0,-1.830074191E-1,-2.561179161E0,3.543600616E0
4.165151220E-1,1.810378194E0,-7.989840508E-1,-2.263087273E0,3.006228322E0
4.214631430E-1,8.210386038E-1,-1.504974723E0,-1.637781143E0,2.370945039E0
4.264110070E-1,-9.091567993E-2,-2.038064957E0,-3.796920776E-1,2.075124214E0
4.313590280E-1,-5.554378033E-1,-2.279601574E0,1.274151802E0,2.669935824E0
4.363069970E-1,-4.710838795E-1,-2.206042290E0,2.826652527E0,3.616421866E0
4.412548610E-1,7.046437263E-2,-2.040936708E0,3.697995186E0,4.224400108E0
4.462028820E-1,8.549532890E-1,-2.214032173E0,3.872671604E0,4.542077602E0
4.511507470E-1,1.485967278E0,-2.827150345E0,3.844933033E0,4.998438542E0
4.560987680E-1,1.797020316E0,-3.538507223E0,3.614261627E0,5.367793075E0
4.610467360E-1,1.705365419E0,-4.040443897E0,2.943208694E0,5.281660300E0
4.659947050E-1,1.240556240E0,-4.479339600E0,2.107062817E0,5.103251586E0
4.709425700E-1,7.327861786E-1,-5.019846916E0,1.311056137E0,5.239723928E0
4.758905910E-1,3.357892036E-1,-5.543062210E0,6.836047173E-1,5.595141505E0
4.808384550E-1,3.646769524E-1,-5.261650085E0,5.989575386E-1,5.308173041E0
4.857864760E-1,6.182017326E-1,-4.492479801E0,5.835371017E-1,4.572205561E0
4.907344450E-1,1.045243740E0,-3.940592289E0,3.357820511E-1,4.090666407E0
4.956823090E-1,1.774945736E0,-3.700427055E0,-7.389163971E-2,4.104759765E0
5.006303300E-1,2.448922157E0,-3.686855078E0,-4.934225082E-1,4.453491425E0
5.055781950E-1,3.716571093E0,-3.957225323E0,-2.001702785E0,5.786134027E0
5.105262160E-1,5.602183819E0,-4.063930511E0,-5.362953663E0,8.755641994E0
5.154741840E-1,6.048802853E0,-4.011091709E0,-5.846710205E0,9.319919145E0
5.204220490E-1,6.524349689E0,-4.260797977E0,-5.192842484E0,9.364141783E0
5.253700700E-1,6.887663841E0,-4.319904327E0,-4.446544170E0,9.266781623E0
5.303180390E-1,6.650858879E0,-4.240868568E0,-3.615833521E0,8.677162099E0
5.352659030E-1,5.971451283E0,-4.154307365E0,-2.885718346E0,7.825846311E0
5.402139240E-1,4.903042793E0,-4.162928581E0,-2.215238333E0,6.802726209E0
5.451617890E-1,3.660790920E0,-4.323579788E0,-1.660039663E0,5.903428159E0
5.501098090E-1,2.391699314E0,-4.563802242E0,-1.158482313E0,5.281154967E0
5.550577780E-1,1.237088203E0,-4.844619751E0,-6.557958126E-1,5.042895587E0
5.600056430E-1,5.453395844E-2,-5.088680267E0,-1.047832966E-1,5.090051115E0
5.649536640E-1,-1.271731377E0,-5.334085941E0,2.925491333E-1,5.491389489E0
5.699015280E-1,-2.771555424E0,-5.622158527E0,2.781515121E-1,6.274356878E0
5.748495490E-1,-4.234516144E0,-5.770675659E0,-7.803773880E-2,7.158066389E0
5.797975180E-1,-5.460830212E0,-5.563264847E0,-5.793261528E-1,7.817045551E0
5.847453820E-1,-6.451168537E0,-5.129020691E0,-1.019166708E0,8.304404224E0
5.896934030E-1,-7.198882103E0,-4.672027111E0,-1.381947398E0,8.692612925E0
5.946413720E-1,-7.510330200E0,-4.208264828E0,-1.747074842E0,8.784464872E0
5.995892360E-1,-7.404913425E0,-3.760274410E0,-2.040979624E0,8.552076023E0
6.045372570E-1,-7.070514679E0,-3.372188330E0,-2.338189125E0,8.175020510E0
6.094852260E-1,-6.783241272E0,-3.047509909E0,-2.687242508E0,7.907019103E0
6.144330910E-1,-6.652925014E0,-2.868722439E0,-3.010118008E0,7.845494892E0
6.193811110E-1,-6.646022797E0,-2.773405075E0,-3.303283691E0,7.922946287E0
6.243289760E-1,-6.746327400E0,-2.651775122E0,-3.535418510E0,8.064987832E0
6.292769970E-1,-6.964095116E0,-2.481155634E0,-3.740900993E0,8.285474899E0
6.342249660E-1,-7.367180824E0,-2.248060703E0,-3.867459774E0,8.618954422E0
6.391728300E-1,-7.961284637E0,-2.027941465E0,-4.090611458E0,9.177565133E0
6.441208510E-1,-8.600403786E0,-1.880627155E0,-4.447134495E0,9.863098346E0
6.490687160E-1,-9.132140160E0,-1.785257578E0,-4.830558777E0,1.048415121E1
6.540167360E-1,-9.533820152E0,-1.669929981E0,-5.203303337E0,1.098893800E1
6.589647050E-1,-9.908667564E0,-1.539760351E0,-5.649384499E0,1.150947870E1
6.639125700E-1,-1.025196362E1,-1.469527483E0,-6.043686390E0,1.199118068E1
6.688605910E-1,-1.045235729E1,-1.406318665E0,-6.294357777E0,1.228203749E1
6.738084550E-1,-1.050325489E1,-1.332370758E0,-6.367560387E0,1.235473190E1
6.787564760E-1,-1.045323277E1,-1.211943865E0,-6.302653790E0,1.226630865E1
6.837044450E-1,-1.026202965E1,-1.012855053E0,-6.206812859E0,1.203576561E1
6.886523090E-1,-9.913292885E0,-6.548545361E-1,-5.993317127E0,1.160267471E1
6.936003300E-1,-9.239392281E0,-3.355891705E-1,-5.637163639E0,1.082850884E1
6.985481950E-1,-8.217686653E0,-1.488904953E-1,-5.743706703E0,1.002709873E1
7.034962160E-1,-7.081475258E0,8.285260201E-2,-6.091493607E0,9.341330245E0
7.084441840E-1,-6.302177429E0,6.813285351E-1,-5.888754845E0,8.652114339E0
7.133920490E-1,-5.091399193E0,9.945998192E-1,-5.493064404E0,7.555483511E0
7.183400700E-1,-3.949122429E0,1.115354300E0,-5.524795532E0,6.882074458E0
7.232880390E-1,-3.127565384E0,1.272121906E0,-5.336873055E0,6.315233438E0
7.282359030E-1,-2.292083740E0,1.289721489E0,-5.144380569E0,5.777688191E0
7.331839240E-1,-1.727795601E0,1.290066957E0,-4.928376675E0,5.379446723E0
7.381317890E-1,-1.301839828E0,1.363767385E0,-4.387348652E0,4.775298589E0
7.430798090E-1,-7.895736694E-1,1.391187906E0,-3.792443752E0,4.116000484E0
7.480277780E-1,-4.483289719E-1,1.520101309E0,-3.246297359E0,3.612499606E0
7.529756430E-1,-2.313499451E-1,1.696771860E0,-2.619414806E0,3.129519367E0
7.579236640E-1,-1.423788071E-1,1.882499218E0,-1.974036455E0,2.731463885E0
7.628716320E-1,-3.866682053E-1,2.099188089E0,-1.378926754E0,2.541169402E0
7.678194970E-1,-8.757600784E-1,2.235876799E0,-9.061427712E-1,2.566553233E0
7.727675180E-1,-1.478644371E0,2.267484426E0,-4.747545421E-1,2.748320701E0
7.777153820E-1,-1.716378212E0,2.287514210E0,-2.921554446E-2,2.859987583E0
7.826634030E-1,-1.391620636E0,2.277262926E0,3.207961023E-1,2.688018707E0
7.876113720E-1,-7.797365189E-1,2.211884022E0,3.333692253E-1,2.368872096E0
7.925592360E-1,-1.163558960E-1,2.064697742E0,8.096039295E-2,2.069557935E0
7.975072570E-1,6.806821823E-1,1.835712910E0,-3.798556328E-2,1.958216797E0
8.024552260E-1,1.309827328E0,1.679517984E0,-1.720467210E-2,2.129958753E0
8.074030910E-1,1.886204720E0,1.459759951E0,-1.828365922E-1,2.392090420E0
8.123511110E-1,1.665936470E0,1.254466772E0,-3.143589497E-1,2.108993303E0
8.172989760E-1,8.923549652E-1,1.025062561E0,-4.112172723E-1,1.419912069E0
8.222469970E-1,9.222440720E-1,9.303836823E-1,-4.502206743E-1,1.385224379E0
8.271949660E-1,1.986010551E0,1.172874689E0,-7.963714600E-1,2.440098451E0
8.321428300E-1,2.839539528E0,1.568859816E0,-1.848260880E0,3.733681043E0
8.370908510E-1,3.400304317E0,2.040351629E0,-3.120736122E0,5.046196406E0
8.420387160E-1,3.738281250E0,2.557380676E0,-4.169255733E0,6.156105587E0
8.469867360E-1,4.184724808E0,3.044335365E0,-4.876953125E0,7.110876972E0
8.519347050E-1,4.300492764E0,3.258326054E0,-5.488741398E0,7.696571237E0
8.568825700E-1,4.061493397E0,3.075681448E0,-5.749176502E0,7.681703941E0
8.618305910E-1,3.503892422E0,2.656128883E0,-5.699378490E0,7.198277428E0
8.667784550E-1,2.814210415E0,2.069680691E0,-5.647342205E0,6.640469291E0
8.717264760E-1,2.032348156E0,1.389421701E0,-5.431680202E0,5.963562820E0
8.766744450E-1,1.440913200E0,7.616028786E-1,-5.058955193E0,5.315006814E0
8.816223090E-1,8.872876167E-1,2.274861336E-1,-4.588103771E0,4.678645688E0
8.865703300E-1,5.742311478E-1,-2.098412514E-1,-3.740790844E0,3.790420940E0
8.915181950E-1,2.814836502E-1,-6.058506966E-1,-2.783259869E0,2.862310886E0
8.964662160E-1,-3.621625900E-1,-9.110832214E-1,-1.840184927E0,2.085069530E0
9.014141840E-1,-1.264252663E0,-1.068655491E0,-1.295664907E0,2.102167192E0
9.063620490E-1,-1.594855309E0,-1.115058422E0,-7.557332516E-1,2.087594665E0
9.113100700E-1,-1.548268318E0,-1.228805542E0,-1.698974371E-1,1.983926154E0
9.162580390E-1,-1.708072662E0,-1.182435989E0,2.083794177E-1,2.087843162E0
9.212059030E-1,-1.928270340E0,-9.187207222E-1,2.593100071E-3,2.135949670E0
9.261539240E-1,-1.563302040E0,-5.766911507E-1,-1.869003773E-1,1.676728273E0
9.311017890E-1,-1.451708794E0,-3.410353661E-1,-3.467070460E-1,1.531002717E0
9.360498090E-1,-1.246883392E0,-8.578300476E-3,-8.798096180E-1,1.526059221E0
9.409977780E-1,-7.663412094E-1,3.281469345E-1,-1.415548682E0,1.642783410E0
9.459456430E-1,-3.849306107E-1,5.826120377E-1,-2.056619883E0,2.171933172E0
9.508936640E-1,-8.380508423E-2,7.685666084E-1,-2.485848904E0,2.603298426E0
9.558415280E-1,-5.301475525E-3,7.884104252E-1,-2.648883581E0,2.763729967E0
9.607895490E-1,2.463569641E-1,7.252631187E-1,-2.651416302E0,2.759838175E0
9.657375180E-1,5.390844345E-1,6.248488426E-1,-2.542071819E0,2.672672303E0
9.706853820E-1,9.009070396E-1,6.212081909E-1,-2.341865540E0,2.584930815E0
9.756334030E-1,1.143033981E0,6.044297218E-1,-2.108626366E0,2.473492899E0
9.805812680E-1,1.175173759E0,4.656844139E-1,-1.864274263E0,2.252423998E0
9.855292890E-1,9.294862747E-1,2.578582764E-1,-1.584445000E0,1.854966734E0
9.904772570E-1,6.888403893E-1,7.854509354E-2,-1.273968220E0,1.450401820E0
9.954251220E-1,6.371436119E-1,4.600381851E-2,-8.868057132E-1,1.092928500E0
1.000373143E0,5.406389236E-1,1.566410065E-2,-5.625984669E-1,7.804183780E-1
1.005321111E0,2.451772690E-1,-1.060070992E-1,-3.449276686E-1,4.362619567E-1
1.010268976E0,-3.857336044E-1,-2.600188255E-1,-1.102125049E-1,4.780658945E-1
1.015216997E0,-8.263130188E-1,-3.656706810E-1,1.297902465E-1,9.128821173E-1
1.020164861E0,-1.582551956E0,-4.067511559E-1,7.194596529E-1,1.785368138E0
1.025112882E0,-1.878508568E0,-3.716011047E-1,7.360452414E-1,2.051498091E0
1.030060851E0,-1.709790230E0,-3.581414223E-1,6.419068575E-1,1.861099761E0
1.035008716E0,-1.537010193E0,-1.358971596E-1,9.229417443E-1,1.797968252E0
1.039956736E0,-3.620605469E-1,2.083344460E-1,5.716364980E-1,7.079967280E-1
1.044904601E0,7.544116974E-1,5.100302696E-1,2.875459790E-1,9.549610333E-1
1.049852622E0,1.590894222E0,6.959638596E-1,3.390872478E-2,1.736795878E0
1.054800591E0,1.975063801E0,6.998028755E-1,-3.557677269E-1,2.125363912E0
1.059748455E0,1.871795654E0,6.720600128E-1,-4.786084890E-1,2.045568312E0
1.064696476E0,1.934559822E0,6.505093575E-1,-7.007135153E-1,2.157935022E0
1.069644341E0,1.667681694E0,3.957715034E-1,-7.121349573E-1,1.856053209E0
1.074592361E0,1.471083641E0,1.965532303E-1,-5.515835285E-1,1.583339711E0
1.079540330E0,1.071270466E0,-4.451084137E-2,-4.060101509E-1,1.146492856E0
1.084488195E0,4.406056404E-1,-9.647703171E-2,-1.639990807E-1,4.799342106E-1
1.089436216E0,-1.722908020E-2,-1.721339226E-1,1.262537241E-1,2.141656633E-1
1.094384184E0,-2.252950668E-1,-1.316771507E-1,3.570443392E-1,4.422413360E-1
1.099332049E0,-1.623582840E-1,7.678604126E-2,6.142135859E-1,6.399333071E-1
1.104280070E0,9.303760529E-2,4.923415184E-1,9.262764454E-1,1.053111684E0
1.109227934E0,3.460211754E-1,9.178881645E-1,1.130675197E0,1.496888685E0
1.114175955E0,5.846805573E-1,1.260498524E0,1.120606184E0,1.785067534E0
1.119123924E0,7.042322159E-1,1.587352276E0,8.800664544E-1,1.946830045E0
1.124071789E0,8.624954224E-1,1.879476070E0,5.699309111E-1,2.145029113E0
1.129019809E0,1.147327423E0,2.070489407E0,2.862733006E-1,2.384373922E0
1.133967674E0,1.420012474E0,2.048595190E0,-3.257298470E-2,2.492837475E0
1.138915695E0,1.621225357E0,1.900325775E0,-3.250308037E-1,2.518978907E0
1.143863664E0,1.699131489E0,1.716187954E0,-4.809339046E-1,2.462447224E0
1.148811528E0,1.794854641E0,1.522482157E0,-5.908031464E-1,2.426623881E0
1.153759549E0,1.918311596E0,1.363481998E0,-6.988161802E-1,2.455065497E0
1.158707414E0,1.813196659E0,1.284636021E0,-7.834377289E-1,2.356214444E0
1.163655434E0,1.430377007E0,1.619624376E0,-9.338943958E-1,2.354000901E0
1.168603403E0,1.664578438E0,1.459117651E0,-8.997151852E-1,2.389421082E0
1.173551268E0,1.617287636E0,1.105507135E0,-7.870074511E-1,2.111195408E0
1.178499289E0,1.206829071E0,7.236003876E-1,-5.860550404E-1,1.524301295E0
1.183447153E0,6.282486916E-1,3.035011292E-1,-2.004315853E-1,7.259353788E-1
1.188395174E0,-1.509408951E-1,-9.283590317E-2,5.113497376E-1,5.411840841E-1
1.193343143E0,-1.049360275E0,-4.821610451E-1,1.269602537E0,1.716253729E0
1.198291007E0,-1.581111908E0,-9.358649254E-1,1.593555450E0,2.432113689E0
1.203239028E0,-1.434156418E0,-9.806909561E-1,1.262771487E0,2.147824763E0
1.208186997E0,-3.277540207E-1,-4.691762924E-1,2.470232248E-1,6.233534832E-1
1.213134861E0,5.066709518E-1,2.273702621E-1,-3.377971649E-1,6.500150877E-1
1.218082882E0,1.014966011E0,6.868705750E-1,-2.261627913E-1,1.246233043E0
1.223030747E0,1.046233177E0,6.590962410E-1,3.187012672E-2,1.236942772E0
1.227978768E0,7.693462372E-1,5.078840256E-1,3.403235674E-1,9.826799818E-1
1.232926736E0,2.718563080E-1,3.138480186E-1,4.137048125E-1,5.861382967E-1
1.237874601E0,3.636264801E-2,2.701849937E-1,2.864040732E-1,3.954105034E-1
1.242822622E0,1.357769966E-1,4.029421806E-1,1.571897864E-1,4.533281623E-1
1.247770486E0,5.111317635E-1,5.858569145E-1,-1.868824959E-1,7.996305842E-1
1.252718507E0,1.242039680E0,6.933383942E-1,-6.346250772E-1,1.557603828E0
1.257666476E0,1.990968227E0,8.043594360E-1,-1.229163527E0,2.474225447E0
1.262614341E0,2.502883911E0,8.709211349E-1,-1.659937739E0,3.127031307E0
1.267562361E0,2.742529869E0,8.222341537E-1,-1.700489283E0,3.330045478E0
1.272510226E0,2.883905888E0,7.149329185E-1,-1.340189815E0,3.259470967E0
1.277458247E0,3.009782791E0,7.054538727E-1,-8.712349534E-1,3.211776449E0
1.282406216E0,3.140553474E0,8.441681862E-1,-2.025107741E-1,3.258328815E0
1.287354080E0,3.688535213E0,1.016665936E0,8.520644903E-1,3.919810651E0
1.292302101E0,3.606999397E0,5.382323265E-1,1.372548461E0,3.896668830E0
1.297249966E0,2.405412674E0,-8.116917610E-1,1.520676970E0,2.959275603E0
1.302197986E0,1.711739063E0,-1.791490555E0,1.980243921E0,3.171885089E0
1.307145955E0,8.268713951E-1,-2.635439873E0,2.621924877E0,3.808378879E0
1.312093820E0,1.206531525E-1,-3.181213856E0,3.328024626E0,4.605477900E0
1.317041841E0,-8.260345459E-1,-3.138378143E0,3.633458138E0,4.871731569E0
1.321989705E0,-1.920685768E0,-2.846260071E0,2.882500172E0,4.483195005E0
1.326937726E0,-2.639351845E0,-2.511615753E0,7.788400054E-1,3.725719207E0
1.331885695E0,-2.668569088E0,-2.014540672E0,-2.004088402E0,3.898205410E0
1.336833559E0,-2.271212101E0,-1.300329685E0,-4.304426193E0,5.037593329E0
1.341781580E0,-2.060878754E0,-4.945755005E-1,-5.840714455E0,6.213354288E0
1.346729445E0,-1.423121929E0,2.324314117E-1,-6.549242973E0,6.706107955E0
1.351677466E0,-7.810182571E-1,3.119449615E-1,-6.880267620E0,6.931477599E0
1.356625434E0,-8.688907623E-1,-3.475465775E-1,-7.208063126E0,7.268557890E0
1.361573299E0,-1.124627113E0,-5.499200821E-1,-6.508461475E0,6.627765009E0
1.366521320E0,-3.579959869E-1,-1.211931705E0,-5.196134567E0,5.347593293E0
1.371469289E0,6.941232681E-1,-1.810576439E0,-4.281390667E0,4.700031936E0
1.376417153E0,-3.018669605E0,-5.925444126E0,3.480818272E0,7.505954311E0
1.381365174E0,-9.204708099E0,-1.317747688E1,1.649864197E1,2.303427305E1
1.386313039E0,-3.069673538E0,-8.172159195E0,7.223534584E0,1.133077815E1
1.391261059E0,4.640936852E0,-1.271287918E0,-2.522259712E0,5.432887067E0
1.396208924E0,5.930629730E0,1.109293461E0,-4.606982708E0,7.591257514E0
1.401156945E0,4.190713882E0,1.770234108E-1,-3.772514582E0,5.641390467E0
1.406104914E0,1.555276394E0,-1.691055298E0,-2.206415653E0,3.185407779E0
1.411052778E0,-8.394341469E-1,-3.222795486E0,-1.401290298E-1,3.333271153E0
1.416000799E0,-1.918904305E0,-3.500307083E0,8.835418820E-1,4.088396955E0
1.420948664E0,-1.413944244E0,-2.718249798E0,8.576060534E-1,3.181761844E0
1.425896684E0,-6.942873001E-1,-1.944616318E0,3.873504400E-1,2.100858834E0
1.430844653E0,-2.684230804E-1,-1.527910233E0,1.114717722E-1,1.555309161E0
1.435792518E0,-4.075002670E-2,-1.258282661E0,-5.480164289E-1,1.373046914E0
1.440740539E0,3.656811714E-1,-7.744283676E-1,-1.025669217E0,1.336210821E0
1.445688403E0,7.108411789E-1,-6.571531296E-1,-1.072801471E0,1.445008101E0
1.450636424E0,1.932878971E0,-1.336085796E0,-1.460633159E0,2.766693983E0
1.455584289E0,8.263764381E0,-1.147675991E0,-4.443754673E0,9.452720113E0
1.460532309E0,1.638625717E1,7.704973221E-2,-8.171746254E0,1.831100209E1
1.465480278E0,3.090007019E1,-2.504596233E0,-1.862197685E1,3.616442122E1
1.470428143E0,3.057043076E1,-4.212219238E0,-1.565799999E1,3.460443601E1
1.475376164E0,1.211969185E1,-5.857305050E0,-8.486585617E0,1.591279637E1
1.480324028E0,-1.191623878E1,-5.440834999E0,6.832789421E0,1.477452008E1
1.485272049E0,-2.297408676E1,-1.491132259E0,1.882029152E1,2.973609777E1
1.490220018E0,-2.678095627E1,1.903925896E0,2.490931320E1,3.662401448E1
1.495167882E0,-2.482706070E1,3.305862904E0,2.384773636E1,3.458361175E1
1.500115903E0,-1.677053070E1,3.811380625E0,1.467201042E1,2.260630912E1
1.505063768E0,-3.194064140E0,4.851229668E0,1.317930818E0,5.955956402E0
1.510011789E0,4.726582050E0,5.286108971E0,-9.917513847E0,1.219182541E1
1.514959757E0,4.886504650E0,4.669521809E0,-1.425287247E1,1.577424278E1
1.519907622E0,2.747661829E0,4.058950424E0,-1.275620556E1,1.366548588E1
1.524855643E0,1.451528549E0,4.213092804E0,-7.416632652E0,8.652371120E0
1.529803507E0,3.579368591E-1,4.279193878E0,-1.144817829E0,4.444122737E0
1.534751528E0,-3.086447716E-1,3.678352833E0,4.596132278E0,5.894910778E0
1.539699497E0,-8.546509743E-1,3.071511269E0,8.816103935E0,9.374875912E0
1.544647361E0,-8.924665451E-1,3.139006615E0,1.064092159E1,1.113009755E1
1.549595382E0,-9.701113701E-1,3.615668774E0,9.936773300E0,1.061855171E1
1.554543247E0,-1.085200310E0,3.955818176E0,6.772495747E0,7.917882027E0
1.559491268E0,-1.506352901E0,4.294907570E0,3.630061150E0,5.821741496E0
1.564439236E0,-1.827653408E0,4.673573971E0,1.227675557E0,5.166216983E0
1.569387101E0,-1.512350559E0,4.716508865E0,-6.233570576E-1,4.992117197E0
1.574335122E0,-9.167098999E-1,6.875529766E0,-1.460616708E0,7.088488398E0
1.579282986E0,-1.304509163E0,6.008863926E0,-2.581861496E0,6.668897857E0
1.584231007E0,-1.615804672E0,5.446301460E0,-3.000226974E0,6.424514475E0
1.589178872E0,-1.320095539E0,5.737755775E0,-2.442871571E0,6.374332520E0
1.594126893E0,-5.044569969E-1,6.446269035E0,-2.337673664E0,6.875578485E0
1.599074861E0,2.604036331E-1,5.870906353E0,-1.545637250E0,6.076540625E0
1.604022726E0,-8.828639984E-3,5.956604004E0,-3.362548351E-2,5.956705455E0
1.608970747E0,-1.307938099E0,6.498188019E0,7.384573817E-1,6.669517891E0
1.613918611E0,1.536321640E-1,5.712523460E0,3.437888145E0,6.669003076E0
1.618866632E0,4.993362427E-1,4.884675026E0,5.464742661E0,7.346618211E0
1.623814601E0,1.081978321E0,4.244808674E0,2.931564808E0,5.270972395E0
1.628762466E0,5.593264103E-1,3.683825493E0,-2.357325554E0,4.409126905E0
1.633710486E0,1.101028204E0,1.917866707E0,-5.876224041E0,6.278573468E0
1.638658351E0,2.250977039E0,-1.321417809E0,-3.163256168E0,4.101125729E0
1.643606372E0,3.552442312E0,-3.628394127E0,2.741714478E0,5.770796184E0
1.648554236E0,2.911001921E0,-5.540122986E0,6.379577160E0,8.936772327E0
1.653502257E0,2.457895279E0,-6.776875496E0,7.651965618E0,1.051284303E1
1.658450122E0,9.657149315E-1,-7.573194504E0,6.424101830E0,9.977723420E0
1.663398143E0,-1.598658562E-1,-8.478935242E0,4.261122227E0,9.490788300E0
1.668346111E0,-6.410813332E-1,-7.738495827E0,1.330087423E0,7.878098469E0
1.673293976E0,-2.261559963E0,-7.958159447E0,-1.734064221E0,8.453042882E0
1.678241997E0,-2.391419649E0,-9.435181618E0,-3.426441193E0,1.031901349E1
1.683189966E0,-2.404145718E0,-1.112918377E1,-2.674186707E0,1.169572240E1
1.688137830E0,-2.547838688E0,-1.150242519E1,-1.222980380E0,1.184453242E1
1.693085851E0,-2.567532539E0,-1.071541691E1,1.929710388E0,1.118642772E1
1.698033716E0,-3.920872450E0,-1.226423073E1,2.844822407E0,1.318626599E1
1.702981736E0,-4.651276588E0,-1.293674374E1,2.047376156E0,1.389911729E1
1.707929601E0,-1.074702263E0,-7.038783073E0,2.634558439E0,7.592124227E0
1.712877622E0,1.082613468E-1,-5.478349686E0,2.096256733E0,5.866713568E0
1.717825486E0,7.645468712E-1,-4.749302864E0,3.034567833E-2,4.810543678E0
1.722773507E0,1.554546118E0,-4.037238121E0,-1.940037847E0,4.741271151E0
1.727721476E0,2.007877111E0,-2.736230850E0,-3.439674854E0,4.832172686E0
1.732669341E0,2.345074415E0,-1.752420425E0,-5.335862637E0,6.086195974E0
1.737617361E0,2.183067799E0,-1.011478424E0,-7.224723339E0,7.614821137E0
1.742565330E0,1.286853790E0,-3.537864685E-1,-8.200935364E0,8.308820517E0
1.747513195E0,2.399065495E-1,5.667848587E-1,-8.004101753E0,8.027729760E0
1.752461216E0,-6.995036602E-1,1.988717079E0,-5.827469349E0,6.197071890E0
1.757409080E0,-1.291230202E0,3.147044182E0,-3.838142872E0,5.128596613E0
1.762357101E0,-1.326066256E0,3.638590336E0,-2.318606377E0,4.513726495E0
1.767305070E0,-1.287590027E0,3.247529507E0,-1.080596566E0,3.656777941E0
1.772252934E0,-1.381856203E0,2.678333282E0,2.955725789E-1,3.028260043E0
1.777200955E0,-1.461411476E0,2.134926796E0,1.469488025E0,2.975404339E0
1.782148820E0,-1.294879198E0,1.708073616E0,2.152311325E0,3.037543688E0
1.787096841E0,-1.265741110E0,1.371657372E0,2.441739798E0,3.073375626E0
1.792044705E0,-1.026553392E0,1.151332855E0,2.290884018E0,2.761798109E0
1.796992726E0,-7.468993664E-1,8.782920837E-1,1.967608333E0,2.280512705E0
1.801940695E0,-6.395354271E-1,3.702640533E-1,9.427365661E-1,1.197853607E0
1.806888559E0,-7.157781124E-1,2.212181091E-1,6.595214605E-1,9.981203910E-1
1.811836580E0,-1.978402138E-1,-1.919364929E-2,1.008674979E0,1.028073130E0
1.816784445E0,3.491053581E-1,-3.122844696E-1,1.112815142E0,1.207374706E0
1.821732466E0,1.072206020E0,-4.999952316E-1,1.020042419E0,1.562084351E0
1.826680434E0,1.619888663E0,-6.565876007E-1,9.196267128E-1,1.975059455E0
1.831628299E0,1.820450306E0,-8.394117355E-1,7.716609836E-1,2.148048429E0
1.836576320E0,1.808728576E0,-9.720621109E-1,7.649704814E-1,2.191251616E0
1.841524289E0,1.762068748E0,-1.147845268E0,6.917811632E-1,2.213819372E0
1.846472153E0,1.716683745E0,-1.276014328E0,5.619260669E-1,2.211555234E0
1.851420174E0,1.565650344E0,-1.323420525E0,3.706794977E-1,2.083292148E0
1.856368039E0,1.476400375E0,-1.314193726E0,2.000124454E-1,1.986672644E0
1.861316059E0,1.472987413E0,-1.303499222E0,1.168535948E-1,1.970395114E0
1.866263924E0,1.452316165E0,-1.298383713E0,1.516177058E-1,1.953972988E0
1.871211945E0,1.471188784E0,-1.281876564E0,1.578333974E-1,1.957681114E0
1.876159914E0,1.495584130E0,-1.320701599E0,4.014140368E-2,1.995654263E0
1.881107778E0,1.519815803E0,-1.247246742E0,2.528721094E-2,1.966241072E0
1.886055799E0,1.748581886E0,-4.786319733E-1,4.368603230E-3,1.812910992E0
1.891003664E0,3.728446722E0,5.374362946E0,5.977582932E-2,6.541304547E0
1.895951684E0,5.077136993E0,1.000145531E1,7.445473075E-1,1.124103105E1
1.900899653E0,2.347262144E0,8.270738602E0,1.722080231E0,8.768142158E0
1.905847518E0,4.118187428E-1,8.055055618E0,1.925178647E0,8.292154636E0
1.910795539E0,3.540990353E-1,1.017591000E1,1.625138521E0,1.031094591E1
1.915743403E0,1.621902585E0,1.390202713E1,6.878881454E-1,1.401321221E1
1.920691424E0,2.833649158E0,1.840095520E1,-2.498731017E-1,1.861953695E1
1.925639393E0,2.367855072E0,1.900959969E1,-9.317917228E-1,1.917915154E1
1.930587257E0,1.855861425E0,1.772663307E1,-7.227837443E-1,1.783816577E1
1.935535278E0,1.768430591E0,1.709030533E1,2.013939619E-1,1.718273676E1
1.940483143E0,1.595970988E0,1.574992752E1,1.108102798E0,1.586931732E1
1.945431164E0,1.909349561E0,1.495322323E1,2.192876339E0,1.523329273E1
1.950379132E0,2.036820650E0,1.273119068E1,2.402767420E0,1.311507323E1
1.955326997E0,2.442999840E0,7.268816948E0,8.527451754E-1,7.715641410E0
1.960275018E0,3.086559772E0,7.091455460E-1,-2.403223038E0,3.975577896E0
1.965222882E0,2.434494972E0,4.780960083E-1,-6.103411674E0,6.588397046E0
1.970170903E0,1.463016033E0,9.794873238E0,-1.945942402E0,1.009290095E1
1.975118872E0,3.171980381E0,1.479114914E1,1.013238430E1,1.820727228E1
1.980066736E0,3.739078045E0,9.413527489E0,1.209673214E1,1.577739309E1
1.985014757E0,3.767765045E0,3.679117680E0,7.463269711E0,9.134131328E0
1.989962622E0,3.074000120E0,-1.102924347E-1,4.651071072E0,5.576208683E0
1.994910643E0,1.846718788E0,-4.559701920E0,5.318890095E0,7.245125514E0
1.999858611E0,3.877020359E0,-9.018998146E0,4.432059765E0,1.077110803E1
2.004806476E0,3.002171516E0,-1.953132248E1,-3.356732130E0,2.004378313E1
2.009754497E0,-4.282803059E0,-5.062492371E1,-1.540961933E1,5.309125795E1
2.014702361E0,-2.310979366E-1,-4.334220123E1,-1.995469093E1,4.771571548E1
2.019650382E0,-9.980365038E-1,-2.905563736E1,-1.790643120E1,3.414478610E1
2.024598351E0,-9.615233421E0,-2.522200775E1,-9.646014214E0,2.866440264E1
2.029546216E0,-1.386358452E1,-1.993735886E1,-1.079959154E0,2.430768532E1
2.034494236E0,-1.273120117E1,-1.273664093E1,2.792131424E0,1.822365231E1
2.039442101E0,-9.886044502E0,-8.449541092E0,3.973106861E0,1.359831602E1
2.044390122E0,-6.468265533E0,-6.447795868E0,3.655509233E0,9.837442672E0
2.049338091E0,-3.262996912E0,-5.284896851E0,2.640798092E0,6.749155364E0
2.054285955E0,-7.070566416E-1,-4.404335022E0,4.789602757E-1,4.486368133E0
2.059233976E0,1.203732967E0,-3.560825348E0,-1.106124997E0,3.918158078E0
2.064181841E0,2.386398792E0,-3.009217262E0,-1.183650494E0,4.018870018E0
2.069129861E0,3.086576939E0,-2.409056664E0,-6.216518283E-1,3.964462410E0
2.074077830E0,3.253919840E0,-1.927370071E0,-6.902664900E-2,3.782527514E0
2.079025695E0,2.768213987E0,-1.547056198E0,-6.224789619E-1,3.231697947E0
2.083973716E0,1.654890060E0,-1.606927872E0,-7.587341666E-1,2.428282486E0
2.088921580E0,7.281385660E-1,-2.029662132E0,-3.960552514E-1,2.192389998E0
2.093869601E0,2.179186344E-1,-2.398756027E0,1.694034636E-1,2.414584135E0
2.098817570E0,-1.452893019E-1,-2.485220909E0,2.552139759E-1,2.502511962E0
2.103765434E0,-3.817596734E-1,-2.003011703E0,2.809258103E-1,2.058328361E0
2.108713455E0,-7.243090868E-1,-2.087988853E0,7.544034719E-2,2.211337231E0
2.113661320E0,-6.762832999E-1,-1.867321968E0,-4.595016837E-1,2.038477920E0
2.118609341E0,-3.782841265E-1,-1.193902969E0,-8.184761405E-1,1.496130467E0
2.123557309E0,-1.337707341E-1,-8.931360245E-1,-5.761517882E-1,1.071231745E0
2.128505174E0,-4.664590955E-2,-7.756338120E-1,-4.755660892E-1,9.110141362E-1
2.133453195E0,-4.223486781E-2,-2.082014084E-1,-8.325107098E-1,8.591889736E-1
2.138401059E0,1.192643493E-1,6.764869690E-1,-1.323033094E0,1.490729745E0
2.143349080E0,4.245324433E-2,1.172380447E0,-1.982555032E0,2.303649853E0
2.148297049E0,2.332180738E-4,2.160558701E0,-2.686744213E0,3.447696103E0
2.153244914E0,-2.043130398E-1,2.638784409E0,-2.162981510E0,3.418101225E0
2.158192934E0,-5.467388034E-1,2.894823074E0,-1.340467572E0,3.236630542E0
2.163140799E0,-5.976045132E-1,3.923270702E0,-1.405432582E0,4.210038587E0
2.168088820E0,-7.403135300E-1,4.826715469E0,-1.827393770E0,5.213886682E0
2.173036789E0,-8.433535695E-1,5.552197456E0,-2.942054272E0,6.339860028E0
2.177984653E0,-7.292666435E-1,5.578041077E0,-4.853351116E0,7.429763734E0
2.182932674E0,-5.178824812E-2,5.023853302E0,-5.089873314E0,7.151824549E0
2.187880539E0,7.073652744E-1,5.374021530E0,-2.648995876E0,6.033046676E0
2.192828559E0,6.433743238E-1,6.138663292E0,3.865604401E-1,6.184379234E0
2.197776424E0,2.230935544E-1,6.413520336E0,-3.629493713E-1,6.427654789E0
2.202724445E0,-7.246544361E-1,6.275939941E0,-2.843446493E0,6.928039705E0
2.207672414E0,-9.046076536E-1,6.193197727E0,-3.997183084E0,7.426404628E0
2.212620278E0,-3.026054204E-1,5.772185326E0,-3.952997923E0,7.002562820E0
2.217568299E0,4.131314456E-1,5.379194260E0,-2.792065620E0,6.074704841E0
2.222516268E0,8.120203018E-1,5.234182835E0,-1.581257105E0,5.527786261E0
2.227464132E0,1.482017875E0,5.380804062E0,-1.527507305E-1,5.583257304E0
2.232412153E0,2.828268290E0,5.653963566E0,1.065783024E0,6.411107469E0
2.237360018E0,3.945798159E0,5.619992256E0,1.968482614E0,7.143427739E0
2.242308039E0,4.655940533E0,5.286957741E0,2.029120445E0,7.331236879E0
2.247255903E0,4.852955341E0,4.693171501E0,1.814574480E0,6.990687722E0
2.252203924E0,4.506761551E0,3.764914036E0,2.156872272E0,6.256003147E0
2.257151893E0,3.944135666E0,2.563027859E0,3.143982649E0,5.657733190E0
2.262099757E0,3.436360359E0,1.167435646E0,4.211393833E0,5.559434910E0
2.267047778E0,2.817844629E0,-3.483724594E-1,4.577954292E0,5.386954355E0
2.271995643E0,1.981720090E0,-1.807106018E0,3.019381046E0,4.038503260E0
2.276943664E0,7.783170938E-1,-3.236941338E0,-6.991970539E-1,3.401829396E0
2.281891632E0,-1.010187387E0,-4.510918617E0,-4.610717773E0,6.528980297E0
2.286839497E0,-3.033738136E0,-5.771940231E0,-6.540321350E0,9.235511057E0
2.291787518E0,-4.899847984E0,-7.002080917E0,-6.010777950E0,1.044830604E1
2.296735382E0,-6.205185413E0,-7.892471313E0,-3.646687031E0,1.068146786E1
2.301683403E0,-6.314536095E0,-8.480151176E0,-7.712590694E-1,1.060099857E1
2.306631372E0,-5.483417511E0,-8.673239708E0,1.006699800E0,1.031049946E1
2.311579236E0,-3.787539482E0,-8.632529259E0,1.757425785E0,9.589294141E0
2.316527257E0,-1.533809900E0,-8.526700020E0,2.874557972E0,9.127993732E0
2.321475122E0,5.282439590E-1,-8.425516129E0,4.259521961E0,9.455786115E0
2.326423143E0,2.115371227E0,-8.590736389E0,5.159444809E0,1.024184641E1
2.331371007E0,2.943722248E0,-8.814889908E0,5.551218033E0,1.082514695E1
2.336319028E0,3.139810085E0,-9.187489510E0,5.010896683E0,1.092599910E1
2.341266997E0,3.092585087E0,-9.688948631E0,3.124399662E0,1.063962788E1
2.346214861E0,2.862621784E0,-1.023550606E1,3.583776951E-1,1.063431344E1
2.351162882E0,2.160797119E0,-1.167978573E1,-2.542087555E0,1.214696044E1
2.356110747E0,1.220206380E0,-1.293721581E1,-5.158646584E0,1.398113339E1
2.361058768E0,2.354531288E-1,-1.480141258E1,-6.566690445E0,1.619440261E1
2.366006632E0,-4.661071897E-1,-1.618694878E1,-6.631998062E0,1.749908469E1
2.370954653E0,-8.199154139E-1,-1.744935226E1,-5.444759369E0,1.829747415E1
2.375902622E0,-8.404701948E-1,-1.854190254E1,-3.683235407E0,1.892286350E1
2.380850486E0,-6.479834914E-1,-1.907925415E1,-1.922654390E0,1.918682937E1
2.385798507E0,-2.500060797E-1,-1.944567299E1,-4.968569279E-1,1.945362608E1
2.390746372E0,1.368064880E-1,-1.940835190E1,4.292895794E-1,1.941358104E1
2.395694393E0,3.586758375E-1,-1.933174515E1,8.406062126E-1,1.935333660E1
2.400642361E0,4.844298363E-1,-1.838030815E1,1.054715991E0,1.841691684E1
2.405590226E0,4.878343940E-1,-1.679503250E1,8.863153458E-1,1.682547634E1
2.410538247E0,4.716519713E-1,-1.493855572E1,4.699248075E-1,1.495338530E1
2.415486111E0,4.995831251E-1,-1.296698761E1,-1.348114014E-2,1.297661484E1
2.420434132E0,5.759096146E-1,-1.094523430E1,-3.448508978E-1,1.096579901E1
2.425381997E0,8.547272682E-1,-8.918981552E0,-7.520850897E-1,8.991352658E0
2.430330018E0,1.174060702E0,-6.955321312E0,-1.266195536E0,7.166461067E0
2.435277986E0,1.471084356E0,-5.056312561E0,-1.654297471E0,5.519699813E0
2.440225851E0,1.538465023E0,-3.369780540E0,-1.953031540E0,4.187675694E0
2.445173872E0,1.386375666E0,-1.930774689E0,-2.205145359E0,3.242313131E0
2.450121736E0,1.040019035E0,-7.074298859E-1,-2.471725464E0,2.773359588E0
2.455069757E0,6.863196492E-1,4.372167587E-1,-2.829030037E0,2.943739816E0
2.460017726E0,2.321518660E-1,1.408112526E0,-3.215329170E0,3.517814243E0
2.464965591E0,-2.460264564E-1,2.330223560E0,-3.397969723E0,4.127550011E0
2.469913611E0,-7.909194827E-1,3.273177147E0,-3.423246384E0,4.801859855E0
2.474861476E0,-1.302130103E0,4.301649094E0,-3.509727240E0,5.702447985E0
2.479809497E0,-1.898673773E0,5.336791515E0,-3.504707813E0,6.661027145E0
2.484757361E0,-2.515454054E0,6.362027168E0,-3.382776260E0,7.631911557E0
2.489705382E0,-2.815819025E0,7.372604847E0,-3.160301924E0,8.501273273E0
2.494653351E0,-2.938668966E0,8.383095741E0,-2.777301788E0,9.307280737E0
2.499601216E0,-2.786616325E0,9.276467323E0,-2.153203726E0,9.922417187E0
2.504549236E0,-2.619841337E0,1.004604244E1,-1.226897597E0,1.045427258E1
2.509497101E0,-2.528301716E0,1.071611786E1,-4.608154297E-2,1.101043210E1
2.514445122E0,-2.316364050E0,1.133484554E1,1.240144730E0,1.163538675E1
2.519393091E0,-1.953512788E0,1.198365784E1,2.574773788E0,1.241183820E1
2.524340955E0,-1.184462428E0,1.247597599E1,3.729026079E0,1.307511238E1
2.529288976E0,-1.498420984E-1,1.255386162E1,4.337675571E0,1.328297119E1
2.534236841E0,7.481652498E-1,1.212954330E1,4.273576736E0,1.288212056E1
2.539184861E0,1.440582037E0,1.149545002E1,3.778695583E0,1.218602429E1
2.544132830E0,2.047148466E0,1.096028423E1,3.328940392E0,1.163617168E1
2.549080695E0,2.638983011E0,1.064098644E1,2.992614508E0,1.136444303E1
2.554028716E0,3.144519567E0,1.035085201E1,2.550557613E0,1.111456184E1
2.558976580E0,3.399334908E0,1.010897350E1,1.754016757E0,1.080848731E1
2.563924601E0,3.406899691E0,9.855587006E0,8.366849422E-1,1.046133846E1
2.568872466E0,3.116060972E0,9.576335907E0,-1.497489810E-1,1.007166670E1
2.573820486E0,2.789710522E0,9.340497017E0,-1.161112905E0,9.817105097E0
2.578768455E0,2.704577208E0,9.322301865E0,-2.047173977E0,9.920230401E0
2.583716320E0,2.959410906E0,9.545151711E0,-2.700165987E0,1.035175978E1
2.588664341E0,3.267130136E0,9.783924103E0,-3.043530941E0,1.075464508E1
2.593612205E0,3.232780933E0,9.964597702E0,-3.095862865E0,1.092375608E1
2.598560226E0,2.765867710E0,9.975071907E0,-2.949341297E0,1.076339620E1
2.603508091E0,2.015454769E0,9.942502975E0,-2.739850283E0,1.050819694E1
2.608456111E0,1.105939627E0,9.891022682E0,-2.728842020E0,1.031998115E1
2.613404080E0,2.082013190E-1,9.921110153E0,-2.837378502E0,1.032097337E1
2.618351945E0,-3.081299067E-1,9.982445717E0,-2.817198515E0,1.037693471E1
2.623299966E0,-5.975304246E-1,1.007733059E1,-2.668534994E0,1.044177731E1
2.628247934E0,-7.825874090E-1,1.020099545E1,-2.325970888E0,1.049203944E1
2.633195799E0,-1.064089179E0,1.034870338E1,-1.540144682E0,1.051665313E1
2.638143820E0,-1.497019410E0,1.043205547E1,-5.064373016E-1,1.055108180E1
2.643091684E0,-1.956852555E0,1.045836449E1,4.206806719E-1,1.064817505E1
2.648039705E0,-2.406385422E0,1.051607227E1,1.134254217E0,1.084734988E1
2.652987570E0,-2.794203758E0,1.052848339E1,1.540626645E0,1.100136662E1
2.657935591E0,-3.116923094E0,1.049551964E1,1.637122154E0,1.107028956E1
2.662883559E0,-3.435189247E0,1.043145180E1,1.450030088E0,1.107782917E1
2.667831424E0,-3.739521742E0,1.033386421E1,1.165195942E0,1.105126481E1
2.672779445E0,-4.124666691E0,1.018129253E1,8.696357012E-1,1.101943098E1
2.677727309E0,-4.515412331E0,9.957134247E0,6.494272947E-1,1.095240735E1
2.682675330E0,-4.691193104E0,9.678270340E0,5.616194010E-1,1.076994085E1
2.687623195E0,-4.716086864E0,9.380703926E0,6.600654721E-1,1.052020760E1
2.692571216E0,-4.587954044E0,9.093164444E0,8.147376180E-1,1.021757111E1
2.697519184E0,-4.216825008E0,8.813185692E0,9.732306004E-1,9.818402772E0
2.702467049E0,-3.625447989E0,8.578977585E0,1.061185837E0,9.373838323E0
2.707415070E0,-2.974771023E0,8.380858421E0,1.172158837E0,8.970061697E0
2.712362934E0,-2.387034178E0,8.228332520E0,1.334480047E0,8.670883762E0
2.717310955E0,-1.853338957E0,8.142781258E0,1.514984369E0,8.487339367E0
2.722258924E0,-1.249997973E0,8.069104195E0,1.591900110E0,8.319079480E0
2.727206789E0,-5.305665731E-1,7.947390079E0,1.438200712E0,8.093882335E0
2.732154809E0,-5.110986829E-1,7.930524349E0,1.464603186E0,8.080810653E0
2.737102674E0,8.470950127E-1,7.296410561E0,5.209193230E-1,7.363866781E0
2.742050695E0,1.273922682E0,6.853795528E0,-6.918376684E-2,6.971526270E0
2.746998559E0,1.243172288E0,6.458835602E0,-6.983368993E-1,6.614356287E0
2.751946580E0,8.401262164E-1,6.061175823E0,-1.419621229E0,6.281639026E0
2.756894549E0,4.172608852E-1,5.577299595E0,-2.130180359E0,5.984817940E0
2.761842414E0,3.561447859E-1,4.878597260E0,-2.505901098E0,5.496097765E0
2.766790434E0,9.337202311E-1,3.889743328E0,-1.707563758E0,4.349449461E0
2.771738299E0,1.954719424E0,2.633833408E0,4.228075743E-1,3.307079179E0
2.776686320E0,2.666370869E0,1.128183365E0,2.511666059E0,3.832857643E0
2.781634184E0,2.586562872E0,-6.802530289E-1,2.900735855E0,3.945544345E0
2.786582205E0,2.448504925E0,-2.672507286E0,1.516961217E0,3.929203850E0
2.791530174E0,3.334626436E0,-4.679206848E0,4.583988786E-1,5.764099212E0
2.796478039E0,4.827113152E0,-6.652930260E0,8.826299310E-1,8.266894097E0
2.801426059E0,6.382112980E0,-8.747499466E0,2.116108179E0,1.103304250E1
2.806373924E0,8.329425812E0,-1.117416000E1,2.403837681E0,1.414282934E1
2.811321945E0,1.010103512E1,-1.406235600E1,5.883435011E-1,1.732417140E1
2.816269809E0,1.003251553E1,-1.770185852E1,-2.308678627E0,2.047772350E1
2.821217830E0,7.646394730E0,-2.115190506E1,-5.040202141E0,2.304938345E1
2.826165799E0,4.017110348E0,-2.326717758E1,-7.829727173E0,2.487575840E1
2.831113664E0,-3.977017403E-1,-2.628291702E1,-1.085644054E1,2.843962368E1
2.836061684E0,-3.336965561E0,-2.808117676E1,-1.453155899E1,3.179393077E1
2.841009549E0,-4.053879738E0,-2.934251785E1,-1.758748245E1,3.444904692E1
2.845957570E0,-3.647809505E0,-3.047101021E1,-1.881879425E1,3.599911102E1
2.850905434E0,-3.179750443E0,-3.079699326E1,-1.724971390E1,3.544175837E1
2.855853455E0,-3.508018970E0,-2.920725060E1,-1.158455276E1,3.161600144E1
2.860801424E0,-5.867167473E0,-2.525518608E1,-2.500909805E0,2.604808300E1
2.865749289E0,-7.841734409E0,-2.074712753E1,6.086761475E0,2.299966879E1
2.870697309E0,-7.310559750E0,-1.725632477E1,1.008608818E1,2.128272076E1
2.875645174E0,-5.340558052E0,-1.524410343E1,1.014841938E1,1.907602332E1
2.880593195E0,-2.839739799E0,-1.456058979E1,8.531742096E0,1.711331413E1
2.885541059E0,-2.980363965E-1,-1.515807915E1,6.035112858E0,1.631805063E1
2.890489080E0,1.290034056E0,-1.681137466E1,3.439620018E0,1.720806473E1
2.895437049E0,1.952601671E0,-1.902555847E1,1.185678244E0,1.916221181E1
2.900384914E0,2.135495663E0,-2.087690544E1,-6.868464947E-1,2.099707791E1
2.905332934E0,2.083476543E0,-2.168285370E1,-2.256560802E0,2.189929418E1
2.910280799E0,2.330813885E0,-2.120038223E1,-3.586167097E0,2.162751707E1
2.915228820E0,2.923846245E0,-1.968631363E1,-4.858070850E0,2.048659741E1
2.920176684E0,3.801020145E0,-1.723195267E1,-5.570541859E0,1.850456386E1
2.925124705E0,4.454226494E0,-1.436757374E1,-5.473962784E0,1.600723516E1
2.930072674E0,4.633845806E0,-1.175375462E1,-4.606102943E0,1.344765626E1
2.935020539E0,4.322985172E0,-9.480610847E0,-3.354845524E0,1.094646844E1
2.939968559E0,3.686886787E0,-7.466324806E0,-2.016650200E0,8.567731224E0
2.944916424E0,3.052193165E0,-5.521622658E0,-9.287701249E-1,6.377053695E0
2.949864445E0,2.673134565E0,-3.665711403E0,-5.135456920E-1,4.565831542E0
2.954812309E0,2.177753687E0,-2.034541130E0,-6.165988445E-1,3.043380171E0
2.959760330E0,1.484609008E0,-5.559358597E-1,-8.770526648E-1,1.811725686E0
2.964708195E0,5.269397497E-1,7.418937683E-1,-9.789720178E-1,1.336584481E0
2.969656216E0,-4.584877491E-1,1.969422340E0,-1.032963276E0,2.270649357E0
2.974604184E0,-1.395614028E0,3.158036232E0,-9.870733023E-1,3.590994996E0
2.979552049E0,-2.198857307E0,4.331916332E0,-7.570058703E-1,4.916658464E0
2.984500070E0,-2.916554689E0,5.519876480E0,-4.598959982E-1,6.259938653E0
2.989447934E0,-3.434647560E0,6.686161995E0,-1.248360276E-1,7.517788912E0
2.994395955E0,-3.772304535E0,7.811787605E0,3.179298341E-1,8.680748037E0
2.999343820E0,-3.983682632E0,8.741586685E0,9.060767293E-1,9.649147119E0
3.004291841E0,-3.917161703E0,9.530930519E0,1.471027374E0,1.040897276E1
3.009239809E0,-3.524356365E0,1.012518406E1,2.042708635E0,1.091389475E1
3.014187674E0,-2.822608709E0,1.063945580E1,2.811616182E0,1.136091216E1
3.019135695E0,-1.841227174E0,1.104762745E1,3.692738056E0,1.179307017E1
3.024083559E0,-7.845229506E-1,1.133316612E1,4.260093689E0,1.213278735E1
3.029031580E0,3.108294010E-1,1.151062679E1,4.398450851E0,1.232629360E1
3.033979445E0,1.391737700E0,1.151089478E1,4.096974850E0,1.229726942E1
3.038927466E0,2.393616199E0,1.140359306E1,3.515009165E0,1.217072811E1
3.043875434E0,3.308893204E0,1.119128323E1,2.775274038E0,1.199565507E1
3.048823299E0,4.149970531E0,1.093387985E1,1.953078389E0,1.185691778E1
3.053771320E0,4.903447151E0,1.067685032E1,9.881678820E-1,1.179047931E1
3.058719184E0,5.586784840E0,1.043210411E1,-6.074405834E-2,1.183404626E1
3.063667205E0,6.170191765E0,1.019960690E1,-1.079038143E0,1.196944320E1
3.068615174E0,6.566580772E0,9.991303444E0,-2.102604628E0,1.213948408E1
3.073563039E0,6.549514771E0,9.723516464E0,-3.202707291E0,1.215319917E1
3.078511059E0,6.148002148E0,9.434597969E0,-4.432750225E0,1.210201817E1
3.083458924E0,5.529226303E0,9.179532051E0,-5.741165638E0,1.215718450E1
3.088406945E0,4.673167229E0,8.953526497E0,-6.704392910E0,1.212241779E1
3.093354809E0,3.436378717E0,8.780530930E0,-6.957468510E0,1.171805403E1
3.098302830E0,1.996265769E0,8.710779190E0,-6.534930229E0,1.107104621E1
3.103250799E0,5.366520882E-1,8.808749199E0,-5.683874130E0,1.049707021E1
3.108198664E0,-6.219880581E-1,8.983351707E0,-4.791509628E0,1.020029615E1
3.113146684E0,-1.509386778E0,9.246407509E0,-3.782068491E0,1.010338272E1
3.118094549E0,-2.134946346E0,9.545114517E0,-2.500738144E0,1.009558806E1
3.123042570E0,-2.650915146E0,9.872212410E0,-8.388594389E-1,1.025629632E1
3.127990434E0,-3.272893429E0,1.014159679E1,9.299885035E-1,1.069713492E1
3.132938455E0,-4.019973755E0,1.020514107E1,2.384913445E0,1.122465613E1
3.137886424E0,-4.664793491E0,1.020895004E1,3.507461548E0,1.175947472E1
3.142834289E0,-5.206106186E0,1.015063953E1,4.019370556E0,1.209522072E1
3.147782309E0,-5.396422386E0,1.015693378E1,4.003291607E0,1.217830128E1
3.152730174E0,-5.213442326E0,1.027072716E1,3.806526661E0,1.213084756E1
3.157678195E0,-4.980181694E0,1.031975269E1,3.570194244E0,1.200190786E1
3.162626059E0,-4.744269848E0,1.022519493E1,2.958317757E0,1.165394147E1
3.167574080E0,-4.579456329E0,9.960933685E0,1.977952957E0,1.114019381E1
3.172522049E0,-4.402298927E0,9.665852547E0,8.811560869E-1,1.065764408E1
3.177469914E0,-4.210442066E0,9.430798531E0,-1.132926047E-1,1.032863101E1
3.182417934E0,-3.894612312E0,9.260455132E0,-9.074338078E-1,1.008699511E1
3.187365799E0,-3.481503725E0,9.159509659E0,-1.425347567E0,9.901974604E0
3.192313820E0,-2.848129749E0,9.082474709E0,-1.670445919E0,9.664035362E0
3.197261789E0,-2.169408321E0,9.022141457E0,-1.771757603E0,9.446930397E0
3.202209653E0,-1.455510139E0,9.000019073E0,-1.727074742E0,9.279096953E0
3.207157674E0,-7.187084556E-1,8.992162704E0,-1.553209543E0,9.153578089E0
3.212105539E0,-1.117707789E-1,8.977029800E0,-1.245381355E0,9.063693037E0
3.217053559E0,4.017569423E-1,8.971340179E0,-8.726212978E-1,9.022628286E0
3.222001424E0,7.339650393E-1,8.951142311E0,-5.446671844E-1,8.997683907E0
3.226949445E0,1.152488112E0,8.844706535E0,-2.486464083E-1,8.922941644E0
3.231897309E0,1.435185671E0,8.726252556E0,7.711166143E-2,8.843822012E0
3.236845330E0,1.666120529E0,8.617253304E0,4.090981185E-1,8.786374303E0
3.241793299E0,1.850150228E0,8.481764793E0,5.901114941E-1,8.701242523E0
3.246741164E0,2.041873693E0,8.338938713E0,5.745300651E-1,8.604489051E0
3.251689184E0,2.304753065E0,8.116938591E0,3.167777658E-1,8.443750762E0
3.256637049E0,2.606532335E0,7.796638012E0,-1.626478434E-1,8.222410196E0
3.261585070E0,2.910223007E0,7.330142975E0,-8.424697518E-1,7.931591849E0
3.266532934E0,3.043382883E0,6.882369995E0,-1.585563779E0,7.690462185E0
3.271480955E0,2.875560045E0,6.538903713E0,-2.564902782E0,7.589784821E0
3.276428924E0,2.357932329E0,6.172650814E0,-3.652588367E0,7.550024154E0
3.281376789E0,1.903730631E0,5.767045021E0,-4.549509048E0,7.588216600E0
3.286324809E0,1.999378562E0,5.091235161E0,-4.363289833E0,6.996891329E0
3.291272674E0,3.213358164E0,3.987338543E0,-2.254096270E0,5.595130860E0
3.296220695E0,4.708036423E0,2.572271347E0,1.643973112E0,5.611134861E0
3.301168664E0,5.412476063E0,1.011121750E0,4.856527328E0,7.341874557E0
3.306116528E0,5.331263065E0,-9.634609222E-1,4.870609283E0,7.285153232E0
3.311064549E0,5.593587875E0,-3.429653168E0,2.324021578E0,6.960734334E0
3.316012414E0,6.544175148E0,-6.111145020E0,5.924100876E-1,8.973476000E0
3.320960434E0,7.498886585E0,-8.826836586E0,1.103294730E0,1.163458652E1
3.325908299E0,8.658882141E0,-1.180944061E1,2.719366312E0,1.489409550E1
3.330856320E0,9.642107964E0,-1.532654953E1,2.251313210E0,1.824669224E1
3.335804184E0,8.397591591E0,-1.933244324E1,-1.444034100E0,2.112695294E1
3.340752205E0,4.609972954E0,-2.199936676E1,-6.800179005E0,2.348332223E1
3.345700070E0,-6.874478459E-1,-2.490516663E1,-1.019455242E1,2.691967326E1
3.350648091E0,-5.611057281E0,-2.697021484E1,-1.173384094E1,2.994260302E1
3.355595955E0,-8.687297821E0,-2.751054382E1,-1.362014580E1,3.190309603E1
3.360543976E0,-9.241178513E0,-2.762824249E1,-1.436169052E1,3.248041438E1
3.365491945E0,-7.921175480E0,-2.797843742E1,-1.404657173E1,3.229309770E1
3.370439809E0,-6.467453957E0,-2.850585938E1,-1.239922523E1,3.175142148E1
3.375387830E0,-5.986778736E0,-2.869707870E1,-7.694869995E0,3.030800010E1
3.380335695E0,-7.043771744E0,-2.717821121E1,-6.658673286E-2,2.807622337E1
3.385283716E0,-7.033410549E0,-2.713722610E1,-7.083582878E-2,2.803396016E1
3.390231580E0,-8.423258781E0,-2.154416656E1,9.335216522E0,2.494491269E1
3.395179601E0,-7.395740509E0,-2.035610962E1,8.295928001E0,2.319246856E1
3.400127570E0,-5.222160816E0,-1.997317886E1,4.997401237E0,2.124082994E1
3.405075434E0,-2.640495777E0,-2.013694191E1,1.141712546E0,2.034139019E1
3.410023455E0,-3.067293763E-2,-2.086330414E1,-1.508501291E0,2.091779091E1
3.414971320E0,2.390322685E0,-2.141005707E1,-2.858278990E0,2.173186474E1
3.419919341E0,4.323960304E0,-2.156943512E1,-3.302102566E0,2.224502294E1
3.424867205E0,5.840890408E0,-2.114853287E1,-3.539609432E0,2.222397980E1
3.429815226E0,7.021801472E0,-2.007003403E1,-3.590733528E0,2.156398222E1
3.434763195E0,7.892985821E0,-1.817329788E1,-3.928381920E0,2.019901398E1
3.439711059E0,8.280685425E0,-1.568508625E1,-4.433762550E0,1.828250344E1
3.444659080E0,7.916686535E0,-1.322107983E1,-4.662049294E0,1.609986277E1
3.449606945E0,7.016690254E0,-1.102516842E1,-4.352252007E0,1.377426507E1
3.454554966E0,5.873133659E0,-9.130241394E0,-3.458155394E0,1.139358792E1
3.459502830E0,4.782211304E0,-7.413914680E0,-2.389471531E0,9.140309078E0
3.464450851E0,3.807140827E0,-5.620120049E0,-1.478953958E0,6.947472594E0
3.469398820E0,2.967680931E0,-3.739487648E0,-6.539754868E-1,4.818566376E0
3.474346684E0,2.155321121E0,-1.958776474E0,-2.086515427E-1,2.919888675E0
3.479294705E0,1.269731283E0,-3.353347778E-1,-2.973024845E-1,1.346497572E0
3.484242570E0,1.781145334E-1,1.045084953E0,-8.073369265E-1,1.332561541E0
3.489190591E0,-9.378073215E-1,2.269038677E0,-1.318620205E0,2.786894030E0
3.494138455E0,-1.857946873E0,3.525864601E0,-1.640111923E0,4.309716335E0
3.499086476E0,-2.580607414E0,4.760800838E0,-1.744723320E0,5.689360132E0
3.504034341E0,-3.337853670E0,5.952606678E0,-1.414392471E0,6.969598227E0
3.508982361E0,-3.912384510E0,7.111095428E0,-8.210732937E-1,8.157732044E0
3.513930226E0,-4.235134602E0,8.155151367E0,-2.170407772E-1,9.191842341E0
3.518878247E0,-4.437811375E0,9.044413567E0,4.586164951E-1,1.008493508E1
3.523826216E0,-4.484568596E0,9.846097946E0,1.243693709E0,1.089053600E1
3.528774080E0,-4.301378250E0,1.056522083E1,1.985605359E0,1.157878987E1
3.533722101E0,-3.899772644E0,1.120191956E1,2.650850773E0,1.215393921E1
3.538669966E0,-3.449139118E0,1.168461609E1,3.088574409E0,1.256845677E1
3.543617986E0,-2.972861528E0,1.202784252E1,3.376820087E0,1.284172166E1
3.548565851E0,-2.325874329E0,1.216724586E1,3.649915695E0,1.291407944E1
3.553513872E0,-1.568111420E0,1.199072647E1,3.753867865E0,1.266207008E1
3.558461841E0,-8.220799565E-1,1.152265453E1,3.825231552E0,1.216880353E1
3.563409705E0,-1.184661463E-1,1.094036579E1,3.756842852E0,1.156803813E1
3.568357726E0,5.926296115E-1,1.033010483E1,3.417377234E0,1.089682260E1
3.573305591E0,1.302097917E0,9.897521019E0,2.812593937E0,1.037145438E1
3.578253611E0,2.026797295E0,9.630420685E0,1.990999222E0,1.004076629E1
3.583201476E0,2.714775562E0,9.444906235E0,1.048507810E0,9.883098136E0
3.588149497E0,3.430588961E0,9.350419998E0,-4.896014929E-3,9.959885478E0
3.593097361E0,4.062145233E0,9.301428795E0,-1.031671762E0,1.020205607E1
3.598045382E0,4.614330769E0,9.297888756E0,-2.030960083E0,1.057674726E1
3.602993351E0,4.952192307E0,9.268043518E0,-2.854420424E0,1.088891892E1
3.607941216E0,5.153656483E0,9.372102737E0,-3.784589767E0,1.134546626E1
3.612889236E0,5.088865280E0,9.487939835E0,-4.811979294E0,1.179290875E1
3.617837101E0,4.771601200E0,9.646618843E0,-5.828526974E0,1.223916500E1
3.622785122E0,3.953213215E0,9.750111580E0,-6.225522518E0,1.222496222E1
3.627732986E0,2.851603508E0,9.855945587E0,-5.741830349E0,1.175754744E1
3.632681007E0,1.817490458E0,1.006221008E1,-4.838409901E0,1.131200927E1
3.637628976E0,1.041749597E0,1.038073540E1,-3.855453014E0,1.112247399E1
3.642576841E0,5.096524954E-1,1.072291565E1,-2.742853642E0,1.107988772E1
3.647524861E0,9.149575233E-2,1.089024734E1,-1.480886579E0,1.099085455E1
3.652472726E0,-2.711966932E-1,1.087338161E1,-1.151363254E-1,1.087737247E1
3.657420747E0,-5.645679832E-1,1.070600033E1,1.326203704E0,1.080259211E1
3.662368611E0,-9.042973518E-1,1.046476364E1,2.729061842E0,1.085250249E1
3.667316632E0,-1.411989093E0,1.020475292E1,3.950186968E0,1.103334367E1
3.672264601E0,-1.904154301E0,1.003833485E1,4.679335117E0,1.123788891E1
3.677212466E0,-2.314795494E0,9.977313995E0,4.879278183E0,1.134514999E1
3.682160486E0,-2.508823633E0,1.001915836E1,4.567243099E0,1.129324753E1
3.687108351E0,-2.586649418E0,1.003221512E1,3.830906391E0,1.104590146E1
3.692056372E0,-2.955745935E0,9.779814720E0,2.702640533E0,1.056813493E1
3.697004236E0,-3.340364695E0,9.472686768E0,1.217443585E0,1.011790491E1
3.701952257E0,-3.537222147E0,9.275867462E0,-1.530716717E-1,9.928599530E0
3.706900226E0,-3.687868834E0,9.203563690E0,-1.139301181E0,9.980178772E0
3.711848091E0,-3.716383696E0,9.231716156E0,-1.742593169E0,1.010310457E1
3.716796111E0,-3.606342793E0,9.307593346E0,-2.051980495E0,1.019056555E1
3.721743976E0,-3.375378847E0,9.373739243E0,-2.143906593E0,1.019100119E1
3.726691997E0,-3.030743599E0,9.425361633E0,-2.120837688E0,1.012525561E1
3.731639861E0,-2.591930866E0,9.469624519E0,-1.986978650E0,1.001698449E1
3.736587882E0,-2.150068283E0,9.429995537E0,-1.643765450E0,9.810686739E0
3.741535747E0,-1.717024088E0,9.294598579E0,-1.162886500E0,9.523131811E0
3.746483768E0,-1.285494804E0,9.154364586E0,-6.706784964E-1,9.268478705E0
3.751431736E0,-9.173765182E-1,8.944697380E0,-1.957507133E-1,8.993748342E0
3.756379601E0,-9.087331295E-1,8.931020737E0,-1.586672366E-1,8.978535660E0
3.761327622E0,-3.145506382E-1,8.457862854E0,5.128819346E-1,8.479235463E0
3.766275486E0,-3.915067017E-2,8.214361191E0,7.227368355E-1,8.246187670E0
3.771223507E0,2.615757287E-1,8.013598442E0,8.356839418E-1,8.061299492E0
3.776171372E0,7.228448391E-1,7.759709835E0,5.852966905E-1,7.815252626E0
3.781119393E0,1.305072069E0,7.313838482E0,-2.392590046E-3,7.429364183E0
3.786067361E0,1.898512602E0,6.666263103E0,-9.026783705E-1,6.989867102E0
3.791015226E0,2.329766512E0,6.003117561E0,-1.942204714E0,6.725874784E0
3.795963247E0,2.421585083E0,5.565239906E0,-3.159975052E0,6.842617325E0
3.800911111E0,1.871929288E0,5.406975746E0,-4.077977180E0,7.026336447E0
3.805859132E0,9.697362185E-1,5.064414501E0,-4.237205505E0,6.674023754E0
3.810806997E0,4.294227362E-1,4.378594398E0,-4.058652878E0,5.985746067E0
3.815755018E0,4.345018268E-1,3.287568092E0,-2.620410442E0,4.226517087E0
3.820702882E0,9.296441674E-1,2.028548241E0,-1.946381330E-1,2.239895142E0
3.825650903E0,1.452631354E0,7.318429947E-1,1.703018665E0,2.354995668E0
3.830598872E0,1.898317814E0,-6.363153458E-1,2.308259964E0,3.055580436E0
3.835546736E0,3.212100983E0,-2.335991859E0,1.794396639E0,4.358246206E0
3.840494757E0,5.969532967E0,-4.314272881E0,1.438010693E0,7.504408643E0
3.845442622E0,8.392130852E0,-6.355195999E0,3.068810225E0,1.096512529E1
3.850390643E0,1.138056850E1,-9.376361847E0,6.367994308E0,1.606190688E1
3.855338507E0,1.564567184E1,-1.383066368E1,8.824262619E0,2.267028708E1
3.860286528E0,1.851049995E1,-1.955125809E1,5.723297119E0,2.752537795E1
3.865234393E0,1.550039101E1,-2.500391769E1,-3.029290199E0,2.957422223E1
3.870182414E0,8.737821579E0,-2.738474655E1,-1.080929756E1,3.071017394E1
3.875130278E0,-3.228556514E-1,-3.034331894E1,-1.452329254E1,3.364145161E1
3.880078299E0,-8.553825378E0,-3.110627747E1,-1.531907463E1,3.571333748E1
3.885026268E0,-1.396276760E1,-3.075498962E1,-1.300468922E1,3.619323428E1
3.889974132E0,-1.361014462E1,-3.043553543E1,-1.103565788E1,3.511899199E1
3.894922153E0,-1.050210857E1,-3.100778198E1,-1.087189198E1,3.449601228E1
3.899870018E0,-8.233203888E0,-3.251998901E1,-9.151317596E0,3.477185565E1
3.904818039E0,-8.093421936E0,-3.173660088E1,-3.836696625E0,3.297628777E1
3.909765903E0,-9.331030846E0,-2.913447189E1,2.554292202E0,3.069869700E1
3.914713924E0,-1.003158855E1,-2.565583420E1,7.424069405E0,2.853018408E1
3.919661789E0,-8.921389580E0,-2.240528870E1,8.800070763E0,2.567156791E1
3.924609809E0,-6.466332912E0,-1.977876091E1,7.298648834E0,2.205182803E1
3.929557778E0,-3.467422962E0,-1.821623993E1,5.024008274E0,1.921184734E1
3.934505643E0,-3.848681152E-1,-1.774805260E1,1.867674589E0,1.785020176E1
3.939453664E0,2.413259983E0,-1.816973686E1,-5.872379541E-1,1.833870251E1
3.944401528E0,5.069475174E0,-1.887964439E1,-1.936665297E0,1.964411422E1
3.949349549E0,7.644039154E0,-1.913163757E1,-2.683906317E0,2.077629043E1
3.954297414E0,9.419270515E0,-1.887375259E1,-3.571193218E0,2.139379852E1
3.959245434E0,1.035416985E1,-1.788025284E1,-4.447146416E0,2.113502747E1
3.964193299E0,1.067969322E1,-1.583739281E1,-5.581688881E0,1.990060574E1
3.969141320E0,1.037573147E1,-1.329933834E1,-6.808035374E0,1.819003984E1
3.974089184E0,9.511126518E0,-1.069976425E1,-7.541734219E0,1.618098383E1
3.979037205E0,8.273100853E0,-8.299190521E0,-7.330667496E0,1.382242551E1
3.983985174E0,6.776801109E0,-6.221479416E0,-6.548860550E0,1.129244942E1
3.988933039E0,5.056860924E0,-4.370085716E0,-5.020328045E0,8.359018199E0
3.993881059E0,3.314355612E0,-2.722887993E0,-3.152432680E0,5.323241864E0
3.998828924E0,1.603897214E0,-1.049977303E0,-1.506006837E0,2.437825917E0
4.003776945E0,1.324008405E-1,4.860010147E-1,-3.028524518E-1,5.877470344E-1
4.008724809E0,-1.178154945E0,1.940086365E0,2.279757857E-1,2.281218345E0
4.013672830E0,-2.509656906E0,3.324441433E0,1.737536490E-1,4.168990160E0
4.018620695E0,-4.077025890E0,4.644061565E0,3.075067401E-1,6.187407238E0
4.023568716E0,-5.548404694E0,5.982853889E0,8.694132566E-1,8.205803722E0
4.028516684E0,-6.711464882E0,7.446097374E0,1.700712681E0,1.016762266E1
4.033464549E0,-7.484268188E0,8.794581413E0,2.447206974E0,1.180456499E1
4.038412570E0,-8.015366554E0,9.894659996E0,3.153639078E0,1.311853029E1
4.043360434E0,-8.252892494E0,1.065348244E1,3.780947208E0,1.399651686E1
4.048308455E0,-7.980212688E0,1.111935806E1,4.061662197E0,1.427658986E1
4.053256320E0,-7.383039951E0,1.145285702E1,3.601364136E0,1.409421997E1
4.058204341E0,-6.328149319E0,1.177852917E1,3.084879637E0,1.372208823E1
4.063152205E0,-4.724901676E0,1.202949142E1,3.219322681E0,1.331906147E1
4.068100226E0,-3.094041586E0,1.206242180E1,3.720780611E0,1.299689660E1
4.073048195E0,-1.534061551E0,1.189435863E1,4.148903370E0,1.269025261E1
4.077996059E0,-1.174640432E-1,1.142275715E1,4.205365658E0,1.217285008E1
4.082944080E0,1.076979280E0,1.083692360E1,4.002460957E0,1.160252090E1
4.087891945E0,2.018506765E0,1.029722691E1,3.776311636E0,1.115203036E1
4.092839966E0,2.819904089E0,9.870572090E0,3.595982313E0,1.087709250E1
4.097787830E0,3.472424269E0,9.628555298E0,3.250157356E0,1.073919598E1
4.102735851E0,4.158215523E0,9.520726204E0,2.447367191E0,1.067354627E1
4.107683716E0,4.765853882E0,9.489506721E0,1.310766459E0,1.069963596E1
4.112631736E0,5.229409695E0,9.508477211E0,-1.495234370E-1,1.085265967E1
4.117579601E0,5.613800526E0,9.544079781E0,-1.786896586E0,1.121593574E1
4.122527622E0,5.924603462E0,9.617815971E0,-3.331527472E0,1.177719769E1
4.127475591E0,6.188156605E0,9.727263451E0,-4.552645206E0,1.239514077E1
4.132423455E0,6.157517910E0,9.968050003E0,-5.213395596E0,1.282406103E1
4.137371476E0,5.538470745E0,1.012247086E1,-5.041693211E0,1.259197144E1
4.142319341E0,4.510584831E0,1.029353428E1,-4.301533222E0,1.203351202E1
4.147267361E0,3.401938438E0,1.040716267E1,-3.487104893E0,1.149095820E1
4.152215226E0,2.428880692E0,1.046585464E1,-2.820979357E0,1.110817264E1
4.157163247E0,1.731029749E0,1.049355793E1,-2.253506660E0,1.087150009E1
4.162111216E0,1.234115958E0,1.049027061E1,-1.802266836E0,1.071526880E1
4.167059080E0,8.421878219E-1,1.041292477E1,-1.343207955E0,1.053292410E1
4.172007101E0,4.711233079E-1,1.024242783E1,-6.141639948E-1,1.027163484E1
4.176954966E0,2.441918105E-2,1.002429485E1,4.259191751E-1,1.003336886E1
4.181902986E0,-4.772052467E-1,9.875718117E0,1.746207476E0,1.004025765E1
4.186850851E0,-9.623854160E-1,9.799001694E0,2.853633881E0,1.025133387E1
4.191798872E0,-1.487037539E0,9.731846809E0,3.383836031E0,1.041011380E1
4.196746736E0,-1.918481231E0,9.748368263E0,3.162819862E0,1.042663337E1
4.201694757E0,-2.193669796E0,9.865209579E0,2.494926929E0,1.040957288E1
4.206642726E0,-2.456396580E0,9.929237366E0,1.507002592E0,1.033898910E1
4.211590591E0,-2.871067762E0,9.818573952E0,2.088705897E-1,1.023186452E1
4.216538611E0,-3.329173326E0,9.645827293E0,-1.212863564E0,1.027601174E1
4.221486476E0,-3.679430723E0,9.568921089E0,-2.163908958E0,1.047783199E1
4.226434497E0,-3.878240824E0,9.527928352E0,-2.730187178E0,1.064312419E1
4.231382361E0,-3.923051834E0,9.501250267E0,-2.952047825E0,1.069479680E1
4.236330382E0,-3.761898518E0,9.522294044E0,-2.845547915E0,1.062652847E1
4.241278247E0,-3.498140812E0,9.569451332E0,-2.415442228E0,1.047118661E1
4.246226268E0,-3.282541275E0,9.594835281E0,-1.669033289E0,1.027723764E1
4.251174132E0,-3.060098410E0,9.529079437E0,-8.738751411E-1,1.004645285E1
4.256122153E0,-2.783108711E0,9.345980644E0,-2.264667451E-1,9.754195789E0
4.261070122E0,-2.425642490E0,9.071891785E0,3.009510934E-1,9.395399598E0
4.266017986E0,-2.007218361E0,8.797790527E0,6.837237477E-1,9.049724961E0
4.270966007E0,-1.644230127E0,8.530765533E0,1.018051505E0,8.747221397E0
4.275913872E0,-1.441215992E0,8.268394470E0,1.341528773E0,8.499597055E0
4.280861893E0,-1.289832950E0,7.977149010E0,1.617997408E0,8.241146217E0
4.285809757E0,-1.153600693E0,7.721637726E0,1.832120419E0,8.019423231E0
4.290757778E0,-9.604735374E-1,7.528030872E0,1.979653955E0,7.843008862E0
4.295705643E0,-7.131406665E-1,7.455977440E0,2.051031113E0,7.765751594E0
4.300653664E0,-3.098797798E-1,7.443062305E0,1.968015432E0,7.705081875E0
4.305601632E0,2.400701791E-1,7.465130806E0,1.548019171E0,7.627724103E0
4.310549497E0,8.678632975E-1,7.383006096E0,7.806002498E-1,7.474710862E0
4.315497518E0,1.503731251E0,7.179392815E0,-6.065760851E-1,7.360218978E0
4.320445382E0,1.968883872E0,6.956636906E0,-2.141999722E0,7.540521437E0
4.325393403E0,1.982560396E0,6.697806358E0,-3.136625290E0,7.656995099E0
4.330341268E0,1.993535995E0,6.259829521E0,-3.510959148E0,7.448925127E0
4.335289289E0,1.740846515E0,5.493465424E0,-2.823155403E0,6.417079973E0
4.340237153E0,1.394931793E0,4.422958374E0,-1.720648050E0,4.946617551E0
4.345185174E0,1.542852998E0,3.178051949E0,-8.808982372E-2,3.533860407E0
4.350133039E0,1.714525104E0,1.800566673E0,2.025203466E0,3.206725083E0
4.355081059E0,2.208647728E0,3.993263245E-1,3.123795271E0,3.846515721E0
4.360029028E0,3.131127119E0,-1.431943893E0,3.125126839E0,4.649821298E0
4.364976893E0,5.160316467E0,-3.735663414E0,3.495586634E0,7.266579188E0
4.369924914E0,7.392530918E0,-6.487546921E0,4.683545589E0,1.089373112E1
4.374872778E0,1.008970451E1,-1.011575794E1,6.306102753E0,1.561722216E1
4.379820799E0,1.437691975E1,-1.499977779E1,6.663025379E0,2.181937356E1
4.384768664E0,1.839439964E1,-2.096421432E1,3.517059803E0,2.811088633E1
4.389716684E0,1.703315544E1,-2.633219147E1,-1.518995047E0,3.139777122E1
4.394664549E0,9.773638725E0,-2.985291100E1,-5.734570503E0,3.193126380E1
4.399612570E0,1.141107678E-1,-3.063755417E1,-8.499979019E0,3.179500574E1
4.404560434E0,-8.488874435E0,-2.863971329E1,-1.034964943E1,3.161343717E1
4.409508455E0,-8.460768700E0,-2.860123062E1,-1.034041405E1,3.156800853E1
4.414456320E0,-1.381963730E1,-2.521481705E1,-1.484032059E1,3.235744874E1
4.419404341E0,-9.476384163E0,-2.575381088E1,-1.618671036E1,3.186016673E1
4.424352205E0,-5.766303062E0,-2.735812187E1,-1.244889164E1,3.060542413E1
4.429300226E0,-5.143299103E0,-2.834199905E1,-3.760010004E0,2.904927041E1
4.434248195E0,-6.273862362E0,-2.770637131E1,4.120160103E0,2.870505320E1
4.439196059E0,-8.251643181E0,-2.700442123E1,8.624950409E0,2.952487343E1
4.444144080E0,-8.529157639E0,-2.528507996E1,9.199684143E0,2.822615785E1
4.449091945E0,-7.011119843E0,-2.312639427E1,5.832342148E0,2.485964860E1
4.454039966E0,-4.832031727E0,-2.144145966E1,1.847316027E0,2.205668378E1
4.458987830E0,-2.302302361E0,-2.057798004E1,-1.599958420E0,2.076809393E1
4.463935851E0,1.526322961E-1,-2.046229553E1,-3.492930412E0,2.075883903E1
4.468883716E0,2.683380604E0,-2.063204575E1,-3.772462368E0,2.114505416E1
4.473831736E0,5.196464539E0,-2.032168198E1,-4.455877304E0,2.144362014E1
4.478779601E0,7.326528549E0,-1.921265221E1,-5.022986412E0,2.116682352E1
4.483727622E0,8.689619064E0,-1.742138481E1,-5.840050220E0,2.032536137E1
4.488675591E0,9.333123207E0,-1.526555347E1,-6.891618729E0,1.917390728E1
4.493623455E0,9.293913841E0,-1.320772648E1,-7.659071922E0,1.787406658E1
4.498571476E0,8.765710831E0,-1.131741428E1,-7.685635567E0,1.624778590E1
4.503519341E0,8.005160332E0,-9.412692070E0,-6.942459106E0,1.417318251E1
4.508467361E0,7.117499828E0,-7.455010414E0,-5.691861629E0,1.177426316E1
4.513415226E0,6.048927784E0,-5.461049080E0,-4.163758278E0,9.151473509E0
4.518363247E0,4.707264423E0,-3.547631264E0,-2.520427942E0,6.410661662E0
4.523311111E0,3.163008451E0,-1.788648605E0,-1.106181145E0,3.798357938E0
4.528259132E0,1.653005600E0,-2.315921783E-1,-2.140122652E-2,1.669287412E0
4.533207101E0,4.457812309E-1,1.138028145E0,2.162773609E-1,1.241211046E0
4.538154966E0,-5.581495166E-1,2.310909271E0,-5.622165203E-1,2.442932655E0
4.543102986E0,-1.702129483E0,3.352092266E0,-1.416109800E0,4.017354142E0
4.548050851E0,-2.932501793E0,4.283460140E0,-1.638380051E0,5.443517863E0
4.552998872E0,-3.886324644E0,5.239248753E0,-1.429510236E0,6.678079533E0
4.557946736E0,-4.660111904E0,6.140681267E0,-9.776903391E-1,7.770488259E0
4.562894757E0,-5.332695484E0,6.987957954E0,-3.249906898E-1,8.796295609E0
4.567842622E0,-5.905338287E0,7.740651131E0,4.567551911E-1,9.746759745E0
4.572790643E0,-6.245157242E0,8.363075256E0,1.373575330E0,1.052756980E1
4.577738507E0,-6.340823174E0,8.774127007E0,2.244819403E0,1.105579293E1
4.582686528E0,-6.093779087E0,9.153388977E0,2.948355436E0,1.138470347E1
4.587634393E0,-5.445290565E0,9.718479156E0,3.527420044E0,1.168514949E1
4.592582414E0,-4.387911797E0,1.042849159E1,3.980914831E0,1.199395221E1
4.597530278E0,-3.048830509E0,1.120439720E1,4.438241482E0,1.243108489E1
4.602478299E0,-1.601838827E0,1.179748058E1,4.854642391E0,1.285744875E1
4.607426268E0,-2.996304631E-1,1.212433910E1,5.104465008E0,1.315845508E1
4.612374132E0,7.576055527E-1,1.213990784E1,5.080780029E0,1.318202011E1
4.617322153E0,1.584145546E0,1.186373520E1,4.782012463E0,1.288896323E1
4.622270018E0,2.242465019E0,1.144925308E1,4.399369240E0,1.246870062E1
4.627218039E0,2.797150373E0,1.107836723E1,4.026504993E0,1.211474363E1
4.632165903E0,3.257748127E0,1.076535702E1,3.582415104E0,1.180421673E1
4.637113924E0,3.585067272E0,1.058897972E1,2.831048965E0,1.153230407E1
4.642061789E0,3.856004715E0,1.049639130E1,1.706564546E0,1.131173573E1
4.647009809E0,3.978998423E0,1.045631123E1,5.103611946E-1,1.119943487E1
4.651957674E0,3.984256506E0,1.047103405E1,-5.608429909E-1,1.121745955E1
4.656905695E0,3.979880810E0,1.040905952E1,-1.343135476E0,1.122461511E1
4.661853664E0,4.054572582E0,1.028019714E1,-1.838247061E0,1.120273022E1
4.666801528E0,4.014343262E0,1.019946098E1,-2.297774553E0,1.119927337E1
4.671749549E0,3.723945141E0,1.020994568E1,-2.642247438E0,1.118446376E1
4.676697414E0,3.153620481E0,1.022551250E1,-2.886616945E0,1.108327504E1
4.681645434E0,2.293532372E0,1.014803982E1,-2.948042393E0,1.081360055E1
4.686593299E0,1.433490038E0,1.003976631E1,-2.835044146E0,1.053039774E1
4.691541320E0,8.125176430E-1,1.004897022E1,-2.112331390E0,1.030067626E1
4.696489184E0,3.722546995E-1,1.000572109E1,-8.974218965E-1,1.005278042E1
4.701437205E0,6.375360489E-2,9.881329536E0,4.085839093E-1,9.889978703E0
4.706385070E0,-1.256927550E-1,9.654281616E0,1.668747663E0,9.798248362E0
4.711333091E0,-3.115262985E-1,9.439357758E0,2.679965258E0,9.817369163E0
4.716281059E0,-4.243601263E-1,9.324958801E0,3.379226208E0,9.927442164E0
4.721228924E0,-6.634226441E-1,9.153153419E0,4.307607651E0,1.013784153E1
4.726176945E0,-6.930266619E-1,9.086655617E0,5.070259094E0,1.042857246E1
4.731124809E0,-6.231561899E-1,9.034415245E0,4.949055195E0,1.031998691E1
4.736072830E0,-8.513075709E-1,8.814664841E0,3.592300653E0,9.556550885E0
4.741020695E0,-1.049849033E0,8.726513863E0,1.826358080E0,8.977182800E0
4.745968716E0,-1.233426213E0,8.738753319E0,2.365819514E-1,8.828540129E0
4.750916580E0,-1.482598901E0,8.827373505E0,-1.037584186E0,9.010949086E0
4.755864601E0,-1.765447021E0,8.980341911E0,-1.976123691E0,9.363140972E0
4.760812466E0,-1.985860944E0,9.187966347E0,-2.660418510E0,9.769349821E0
4.765760486E0,-2.078945637E0,9.373573303E0,-3.075302362E0,1.008183396E1
4.770708455E0,-2.072132587E0,9.577756882E0,-3.250711679E0,1.032445092E1
4.775656320E0,-1.979922771E0,9.797967911E0,-3.202302933E0,1.049642860E1
4.780604341E0,-1.913424373E0,1.005083847E1,-3.020473242E0,1.066788664E1
4.785552205E0,-1.863402367E0,1.020226955E1,-2.713981628E0,1.072027372E1
4.790500226E0,-1.824930787E0,1.020685673E1,-2.312049627E0,1.062336435E1
4.795448091E0,-1.816862583E0,1.000245667E1,-1.891188502E0,1.034053785E1
4.800396111E0,-1.795130849E0,9.663360596E0,-1.524124742E0,9.946154483E0
4.805343976E0,-1.823822737E0,9.218346596E0,-1.142241597E0,9.466200885E0
4.810291997E0,-1.852118731E0,8.760784149E0,-6.775041819E-1,8.980016404E0
4.815239861E0,-1.832045674E0,8.379299164E0,-1.177965403E-1,8.578048837E0
4.820167622E0,-1.835636377E0,8.358628273E0,-3.493249416E-2,8.557888045E0
4.825135799E0,-1.469469666E0,7.921370983E0,1.089137554E0,8.129801963E0
4.830083716E0,-1.035940170E0,7.728381157E0,1.464733243E0,7.933882455E0
4.835031736E0,-5.124964118E-1,7.497395039E0,1.510752201E0,7.665243450E0
4.839979601E0,-1.004443765E-1,7.206977844E0,1.187287927E0,7.304811520E0
4.844927622E0,1.176743805E-1,6.885948181E0,4.851630926E-1,6.904021498E0
4.849875486E0,2.496236265E-1,6.439189434E0,-1.268044710E-1,6.445273609E0
4.854823507E0,4.649870396E-1,5.836888313E0,6.245883703E-1,5.888598200E0
4.859771372E0,6.682425737E-1,4.972475529E0,3.032928467E0,5.862654357E0
4.864719393E0,5.815654993E-1,3.657150269E0,5.484712601E0,6.617782017E0
4.869667257E0,1.022468805E0,2.174802303E0,6.777444363E0,7.190894215E0
4.874615278E0,1.988140225E0,6.396398544E-1,7.235013962E0,7.530422812E0
4.879563143E0,3.398190737E0,-7.953605652E-1,8.193409920E0,8.905743362E0
4.884511164E0,5.060668945E0,-2.183430672E0,9.085728645E0,1.062676831E1
4.889459028E0,6.817391872E0,-4.333864212E0,9.221841812E0,1.225975438E1
4.894407049E0,8.885238647E0,-7.658647537E0,8.883549690E0,1.471461189E1
4.899354966E0,1.204487419E1,-1.229745388E1,7.354073048E0,1.871867401E1
4.904302882E0,1.610541725E1,-1.856232834E1,4.023557663E0,2.490248009E1
4.909250903E0,1.964606667E1,-2.643079376E1,2.002971649E0,3.299343404E1
4.914198768E0,1.971523857E1,-3.496803665E1,1.236600161E0,4.016196458E1
4.919146789E0,1.337687302E1,-4.023980713E1,-2.122770786E0,4.245808480E1
4.924094653E0,1.756116152E0,-4.047478104E1,-9.772236824E0,4.167479402E1
4.929042674E0,-9.820978165E0,-4.007594299E1,-1.664071083E1,4.449096623E1
4.933990539E0,-1.646594620E1,-3.971049118E1,-2.251865578E1,4.852978830E1
4.938938559E0,-1.738997269E1,-3.937109756E1,-2.438587189E1,4.946883080E1
4.943886424E0,-1.390320587E1,-3.802585220E1,-1.924972153E1,4.483097532E1
4.948834445E0,-9.659418106E0,-3.518577576E1,-9.726909637E0,3.776183185E1
4.953782309E0,-5.619021416E0,-3.119580460E1,-9.968634844E-1,3.171348866E1
4.958730330E0,-2.370488167E0,-2.709329796E1,4.532241344E0,2.757185558E1
4.963678195E0,3.778321445E-1,-2.438080978E1,6.764410973E0,2.530462208E1
4.968626216E0,2.944970369E0,-2.242077255E1,6.729281425E0,2.359337027E1
4.973574132E0,5.280525208E0,-2.095395279E1,5.175985336E0,2.222032646E1
4.978522049E0,7.398713112E0,-1.951305580E1,3.134935379E0,2.110279892E1
4.983470070E0,8.851334572E0,-1.839644051E1,7.304256558E-1,2.042813424E1
4.988417934E0,9.469388008E0,-1.723780441E1,-9.120657444E-1,1.968865344E1
4.993365955E0,9.794768333E0,-1.541581440E1,-2.739678860E0,1.846863992E1
4.998313820E0,1.003982735E1,-1.313735771E1,-4.611979485E0,1.716562424E1
5.003261841E0,9.984713554E0,-1.049187756E1,-5.673564911E0,1.555517079E1
5.008209705E0,9.550503731E0,-7.776730537E0,-6.431776047E0,1.389450980E1
5.013157726E0,8.645979881E0,-5.362956047E0,-6.847611427E0,1.226393281E1
5.018105591E0,7.522820950E0,-3.247879982E0,-6.412140846E0,1.040466769E1
5.023053611E0,6.266407967E0,-1.223155975E0,-5.400909424E0,8.362643239E0
5.028001476E0,5.054610252E0,5.607357025E-1,-4.588667870E0,6.849772416E0
5.032949497E0,3.670898676E0,2.042112350E0,-3.686366081E0,5.588829468E0
5.037897361E0,2.132467031E0,3.281357765E0,-2.654834747E0,4.728939835E0
5.042845382E0,5.189959407E-1,4.336436272E0,-1.609931350E0,4.654665968E0
5.047793299E0,-1.174324512E0,5.248481274E0,-3.266800940E-1,5.388164217E0
5.052741216E0,-2.870540857E0,6.051347256E0,1.160867333E0,6.797530536E0
5.057689236E0,-4.303206444E0,6.814647198E0,2.532111168E0,8.447993199E0
5.062637101E0,-5.303645134E0,7.677208900E0,3.699227333E0,1.003755304E1
5.067585122E0,-5.936700821E0,8.457251549E0,4.479387283E0,1.126207933E1
5.072532986E0,-6.032162189E0,9.229045868E0,4.583102703E0,1.194014651E1
5.077481007E0,-5.696956158E0,9.983077049E0,4.249202728E0,1.225450369E1
5.082428872E0,-5.246253014E0,1.035588741E1,3.572751999E0,1.214628057E1
5.087376893E0,-4.889905930E0,1.046751118E1,2.749966621E0,1.187612254E1
5.092324757E0,-4.095386505E0,1.066499043E1,2.610512972E0,1.171874521E1
5.097272778E0,-2.902807236E0,1.088367271E1,3.126070023E0,1.168986464E1
5.102220643E0,-1.660984039E0,1.110201168E1,3.714726448E0,1.182424306E1
5.107168664E0,-5.097215176E-1,1.119089603E1,4.150144577E0,1.194653381E1
5.112116580E0,4.378474951E-1,1.112419891E1,4.234862804E0,1.191106943E1
5.117064497E0,1.260079145E0,1.094757748E1,4.040294170E0,1.173717296E1
5.122012518E0,1.865540743E0,1.075684357E1,3.729448557E0,1.153684152E1
5.126960382E0,2.311456442E0,1.056877995E1,3.331798315E0,1.132001857E1
5.131908403E0,2.673850536E0,1.049100304E1,2.768646717E0,1.117479423E1
5.136856268E0,2.881203890E0,1.056881332E1,1.974061012E0,1.113095089E1
5.141804289E0,3.086376429E0,1.074463272E1,9.179880023E-1,1.121675326E1
5.146752153E0,3.189792395E0,1.099201202E1,-1.764138043E-1,1.144684348E1
5.151700174E0,3.115783453E0,1.123192310E1,-1.344028592E0,1.173331223E1
5.156648039E0,2.918761253E0,1.143562508E1,-2.439555407E0,1.205172679E1
5.161596059E0,2.612398148E0,1.152659607E1,-3.356590271E0,1.228632326E1
5.166543924E0,2.176186323E0,1.151928806E1,-4.085285664E0,1.241448120E1
5.171491945E0,1.711740851E0,1.133491516E1,-4.731856346E0,1.240164598E1
5.176439809E0,1.312368631E0,1.106697941E1,-5.171484947E0,1.228595138E1
5.181387830E0,1.123053789E0,1.081605530E1,-5.389728546E0,1.213661715E1
5.186335747E0,1.073701382E0,1.063237858E1,-5.361161232E0,1.195585039E1
5.191283664E0,1.132194638E0,1.046566391E1,-5.269372463E0,1.177192728E1
5.196231580E0,1.112018824E0,1.030159283E1,-4.680519104E0,1.136954967E1
5.201179601E0,1.057477713E0,1.019036961E1,-3.482311964E0,1.082073881E1
5.206127518E0,1.045233607E0,1.011758327E1,-2.019360542E0,1.036994800E1
5.211075434E0,9.624997973E-1,9.954042435E0,-6.687293053E-1,1.002280228E1
5.216023455E0,7.811831236E-1,9.776348114E0,4.900575876E-1,9.819744699E0
5.220971320E0,5.281496644E-1,9.536674500E0,1.611569405E0,9.686292300E0
5.225919341E0,2.679225504E-1,9.342679977E0,2.684784174E0,9.724480331E0
5.230867205E0,2.180647850E-2,9.208621025E0,3.524563313E0,9.860107669E0
5.235815226E0,-2.554772794E-1,9.177469254E0,4.052129745E0,1.003548534E1
5.240763091E0,-5.143534541E-1,9.189272881E0,4.161441326E0,1.010073708E1
5.245711111E0,-8.359791040E-1,9.188994408E0,3.947977304E0,1.003608510E1
5.250659028E0,-1.170251727E0,9.064271927E0,3.501914024E0,9.787436667E0
5.255606945E0,-1.513576508E0,8.757935524E0,2.848545551E0,9.333089534E0
5.260554966E0,-1.807682872E0,8.375473976E0,1.977627397E0,8.793593794E0
5.265502830E0,-2.078035355E0,8.050916672E0,9.567716122E-1,8.369641695E0
5.270450851E0,-2.291003704E0,7.901376247E0,-8.278310299E-3,8.226816705E0
5.275398716E0,-2.410557985E0,7.919464111E0,-7.808059454E-1,8.314947957E0
5.280346736E0,-2.463382483E0,8.061919212E0,-1.315313816E0,8.531872308E0
5.285294601E0,-2.475508213E0,8.209008217E0,-1.703838229E0,8.741797385E0
5.290242622E0,-2.476063728E0,8.312881470E0,-2.034930944E0,8.909311638E0
5.295190486E0,-2.402338982E0,8.349660873E0,-2.259701490E0,8.977433938E0
5.300138507E0,-2.229199886E0,8.410205841E0,-2.370387077E0,9.017739701E0
5.305086372E0,-2.011438370E0,8.496827126E0,-2.464179277E0,9.072713763E0
5.310034393E0,-1.771438837E0,8.556789398E0,-2.535736084E0,9.098714077E0
5.314982309E0,-1.566556692E0,8.616333961E0,-2.620079279E0,9.141122810E0
5.319930226E0,-1.334780216E0,8.594085693E0,-2.691071749E0,9.103944985E0
5.324878247E0,-1.081797004E0,8.568863869E0,-2.766666889E0,9.069187308E0
5.329826111E0,-7.704071999E-1,8.660021782E0,-2.882083416E0,9.159471018E0
5.334774132E0,-2.885158062E-1,8.759461403E0,-3.119640827E0,9.302879357E0
5.339721997E0,3.934542537E-1,8.723335266E0,-3.420444489E0,9.378210112E0
5.344670018E0,1.261137962E0,8.151954651E0,-3.866315365E0,9.110061915E0
5.349617882E0,2.216794014E0,7.260330200E0,-4.585035801E0,8.868434113E0
5.354565903E0,2.875761032E0,6.050029755E0,-5.648710728E0,8.762465089E0
5.359513768E0,2.976053953E0,4.501086235E0,-7.843942165E0,9.520719675E0
5.364461789E0,2.165844917E0,2.606825829E0,-9.976762772E0,1.053670824E1
5.369409653E0,1.115854383E0,2.937698364E-1,-1.001718712E1,1.008342548E1
5.374357674E0,8.326768279E-1,-1.837254524E0,-6.072653770E0,6.398904492E0
5.379305539E0,7.354254127E-1,-3.387976646E0,-3.898228407E-1,3.488724429E0
5.384253559E0,5.335953832E-1,-4.989056587E0,3.924179316E0,6.369818911E0
5.389201476E0,7.294355631E-1,-6.253660202E0,7.224561691E0,9.583038860E0
5.394149393E0,1.637898684E0,-8.093502045E0,9.854036331E0,1.285649717E1
5.399097414E0,3.894843578E0,-1.018219376E1,1.311329937E1,1.705302016E1
5.404045278E0,6.554860115E0,-1.368125343E1,1.739385796E1,2.308006025E1
5.408993299E0,9.738141060E0,-1.784248161E1,1.758347130E1,2.687683025E1
5.413941164E0,1.466458797E1,-2.542188263E1,9.632998466E0,3.088878302E1
5.418889184E0,1.863615036E1,-3.449866104E1,-4.326599121E0,3.944848760E1
5.423837049E0,1.454266644E1,-4.157524872E1,-1.545342255E1,4.667760407E1
5.428785070E0,3.046105385E0,-4.494071579E1,-2.255147362E1,5.037375960E1
5.433732934E0,-9.848941803E0,-4.376247787E1,-2.606010056E1,5.187759599E1
5.438680955E0,-1.611095047E1,-3.934396744E1,-2.181541061E1,4.778517175E1
5.443628820E0,-1.406001186E1,-3.410929871E1,-1.586345482E1,4.015939978E1
5.448576841E0,-6.879955769E0,-2.949044228E1,-1.049025345E1,3.204786100E1
5.453524705E0,1.241113544E0,-2.568162155E1,-4.626787186E0,2.612457096E1
5.458472726E0,5.434681892E0,-2.243164062E1,7.286422253E-1,2.309210228E1
5.463420591E0,4.936085224E0,-1.990725136E1,3.820888996E0,2.086295249E1
5.468368611E0,2.528482437E0,-1.941716003E1,5.125141621E0,2.024071155E1
5.473316476E0,2.532063484E0,-1.937859344E1,5.053997993E0,2.018623603E1
5.478264497E0,1.695125103E-1,-1.974314880E1,6.418391228E0,2.076093459E1
5.483212361E0,8.315634727E-2,-1.944469261E1,5.242362022E0,2.013914957E1
5.488160382E0,2.385878563E-1,-1.865469360E1,2.751379013E0,1.885801167E1
5.493108299E0,6.668483019E-1,-1.753737640E1,3.458465338E-1,1.755345743E1
5.498056216E0,1.181271791E0,-1.611271477E1,-1.291455030E0,1.620749322E1
5.503004236E0,1.690713406E0,-1.438894844E1,-2.064933062E0,1.463435334E1
5.507952101E0,2.055404186E0,-1.243876076E1,-2.370443821E0,1.282834594E1
5.512900122E0,2.219672441E0,-1.030581951E1,-2.357863903E0,1.080261004E1
5.517847986E0,2.222969532E0,-8.081661224E0,-2.197290897E0,8.665040622E0
5.522796007E0,2.117009401E0,-5.668579102E0,-2.047158957E0,6.387908705E0
5.527743872E0,2.023188114E0,-3.215417862E0,-1.921651602E0,4.257340373E0
5.532691893E0,2.210093737E0,-7.221975327E-1,-1.659270048E0,2.856441964E0
5.537639757E0,2.300314665E0,1.538505554E0,-1.600528479E0,3.196895104E0
5.542587778E0,2.195530653E0,3.481154442E0,-1.906878471E0,4.535964793E0
5.547535643E0,1.911088467E0,5.144794464E0,-2.164465666E0,5.899667857E0
5.552483664E0,1.271454811E0,6.451235771E0,-2.345093727E0,6.981010307E0
5.557431528E0,3.747555614E-1,7.444364071E0,-2.536365509E0,7.873509265E0
5.562379549E0,-5.104773045E-1,8.196521759E0,-2.520064592E0,8.590359805E0
5.567327414E0,-1.316032410E0,8.765620232E0,-2.087899923E0,9.106446367E0
5.572275434E0,-2.008684397E0,9.101746559E0,-1.275385976E0,9.407614619E0
5.577223299E0,-2.481310129E0,9.303230286E0,-5.895213485E-1,9.646477550E0
5.582171320E0,-2.702806473E0,9.492235184E0,-7.054656744E-2,9.869785632E0
5.587098976E0,-2.673350811E0,9.482300758E0,-9.516772628E-2,9.852405246E0
5.592067205E0,-2.481621265E0,1.010343742E1,1.029852271E0,1.045459170E1
5.597015070E0,-2.016345501E0,1.048447514E1,1.870335579E0,1.083918923E1
5.601963039E0,-1.402807951E0,1.091503525E1,3.191557169E0,1.145826783E1
5.606911007E0,-6.567248702E-1,1.121808434E1,4.368852615E0,1.205668184E1
5.611858924E0,1.264194250E-1,1.131013203E1,5.011943340E0,1.237152555E1
5.616806893E0,7.471796274E-1,1.120577049E1,5.282394409E0,1.241093310E1
5.621754809E0,1.304058313E0,1.095309544E1,5.040223122E0,1.212743653E1
5.626702778E0,2.020722151E0,1.071483803E1,4.660913467E0,1.185812744E1
5.631650695E0,2.696119785E0,1.051488018E1,4.256612301E0,1.165978196E1
5.636598664E0,3.347562075E0,1.036751747E1,3.578458786E0,1.146721229E1
5.641546580E0,3.882576227E0,1.021049500E1,2.663566113E0,1.124380677E1
5.646494549E0,4.336834908E0,1.005343723E1,1.506296396E0,1.105208876E1
5.651442466E0,4.456062317E0,9.822256088E0,3.160945177E-1,1.079041805E1
5.656390434E0,4.351301193E0,9.660552979E0,-8.380660415E-1,1.062837996E1
5.661338351E0,4.055140018E0,9.699767113E0,-1.947731733E0,1.069220751E1
5.666286320E0,3.565335512E0,1.001149750E1,-3.154852867E0,1.108579253E1
5.671234236E0,2.604150057E0,1.045693398E1,-4.107142448E0,1.153246222E1
5.676182205E0,1.377430201E0,1.086872292E1,-4.958357811E0,1.202546315E1
5.681130122E0,1.066810489E-1,1.116332436E1,-5.547948837E0,1.246639193E1
5.686078091E0,-8.164000511E-1,1.151302814E1,-5.517116547E0,1.279276753E1
5.691026059E0,-1.331963301E0,1.190330124E1,-4.777487755E0,1.289523539E1
5.695973976E0,-1.421518683E0,1.216891098E1,-3.770792246E0,1.281881367E1
5.700921945E0,-1.087877989E0,1.226679611E1,-2.687197685E0,1.260471328E1
5.705869861E0,-7.818672657E-1,1.218754196E1,-1.392374396E0,1.229171273E1
5.710817830E0,-8.829450607E-1,1.194572639E1,1.927383393E-1,1.197986307E1
5.715765747E0,-1.236102104E0,1.151292133E1,1.945992351E0,1.174147317E1
5.720713716E0,-1.650404453E0,1.095397663E1,3.712400675E0,1.168312277E1
5.725661632E0,-2.084060431E0,1.035272217E1,5.173418522E0,1.175952479E1
5.730609601E0,-2.391448498E0,9.802388191E0,6.092351913E0,1.178654284E1
5.735557518E0,-2.480586529E0,9.391250610E0,6.276751518E0,1.156488250E1
5.740505486E0,-2.277545929E0,9.092687607E0,5.588476658E0,1.091307723E1
5.745453403E0,-1.781646729E0,8.837162971E0,4.526167870E0,1.008741345E1
5.750401372E0,-1.322785854E0,8.598351479E0,3.374287128E0,9.330981952E0
5.755349289E0,-1.053398609E0,8.321267128E0,2.306337357E0,8.698984265E0
5.760297257E0,-9.387983084E-1,8.053812027E0,1.347865582E0,8.219608997E0
5.765245174E0,-8.989653587E-1,7.891655922E0,5.001467466E-1,7.958424384E0
5.770193143E0,-8.827967644E-1,7.731876850E0,-2.903139889E-1,7.787524123E0
5.775141111E0,-8.347115517E-1,7.667727470E0,-1.009561777E0,7.778817578E0
5.780089028E0,-8.522586823E-1,7.627389908E0,-1.641944408E0,7.848528723E0
5.785036945E0,-8.753206730E-1,7.594120502E0,-2.147597551E0,7.940341789E0
5.789984914E0,-9.582473040E-1,7.587091446E0,-2.493979931E0,8.043763448E0
5.794932882E0,-1.007405162E0,7.608727455E0,-2.780302763E0,8.163190681E0
5.799880799E0,-1.074728489E0,7.644654751E0,-3.097074509E0,8.317911883E0
5.804828768E0,-1.081805468E0,7.745051384E0,-3.418210745E0,8.534652231E0
5.809776684E0,-9.907243848E-1,7.981481552E0,-3.678287983E0,8.843946238E0
5.814724653E0,-8.217100501E-1,8.234098434E0,-3.867191792E0,9.134043835E0
5.819672570E0,-7.260679007E-1,8.471651077E0,-3.969624043E0,9.383707242E0
5.824620539E0,-6.738459468E-1,8.741766930E0,-3.965365410E0,9.622716885E0
5.829568455E0,-5.607022047E-1,8.996225357E0,-3.957180500E0,9.844071066E0
5.834516424E0,-4.143885076E-1,9.215530396E0,-3.998174191E0,1.005400990E1
5.839464341E0,-3.625383377E-1,9.234190941E0,-4.087744236E0,1.010501704E1
5.844412309E0,-4.110810459E-1,8.977555275E0,-4.466229439E0,1.003557132E1
5.849360226E0,-5.647782087E-1,8.354337692E0,-5.099953175E0,9.804256988E0
5.854308195E0,-7.954971790E-1,7.505361557E0,-5.878369331E0,9.566529876E0
5.859256111E0,-9.889251590E-1,6.640807629E0,-6.762310505E0,9.529278162E0
5.864204080E0,-9.416024089E-1,5.562698841E0,-7.739354610E0,9.577465389E0
5.869152049E0,-4.446277618E-1,3.977244854E0,-7.561237335E0,8.555026623E0
5.874099966E0,8.448985815E-1,2.231629372E0,-4.703898430E0,5.274531610E0
5.879047934E0,1.894745827E0,5.702781677E-1,-5.308935642E-1,2.048689072E0
5.883995851E0,2.687887192E0,-1.191989899E0,2.008303165E0,3.560738558E0
5.888943820E0,3.615762711E0,-3.326305389E0,3.151998758E0,5.837220545E0
5.893891736E0,4.945810795E0,-6.170271873E0,3.939254045E0,8.834648937E0
5.898839705E0,6.863208771E0,-9.254177094E0,5.271150589E0,1.266998251E1
5.903787622E0,9.159213066E0,-1.264882946E1,8.439996719E0,1.775155248E1
5.908735591E0,1.171398830E1,-1.785906219E1,1.129645348E1,2.416140488E1
5.913683507E0,1.451408958E1,-2.513995361E1,8.229513168E0,3.017285123E1
5.918631476E0,1.496593094E1,-3.290017319E1,-2.954426765E0,3.626470905E1
5.923579393E0,1.134067917E1,-4.011609650E1,-1.251751900E1,4.352700867E1
5.928527361E0,3.934822083E0,-4.550614166E1,-1.645214844E1,4.854858332E1
5.933475278E0,-7.208576679E0,-4.534153366E1,-1.604297066E1,4.863327215E1
5.938423247E0,-1.628593063E1,-4.106188965E1,-1.142653275E1,4.562757904E1
5.943371164E0,-1.650666046E1,-3.509267044E1,-7.434857845E0,3.948724439E1
5.948319132E0,-1.177660275E1,-2.962558746E1,-4.112856865E0,3.214466358E1
5.953267049E0,-5.274473190E0,-2.566009140E1,4.741067886E-1,2.620086135E1
5.958215018E0,9.556838274E-1,-2.265843010E1,5.820672512E0,2.341362882E1
5.963162934E0,3.873904705E0,-2.015935898E1,8.671038628E0,2.228438473E1
5.968110903E0,3.611930847E0,-1.857417297E1,8.033393860E0,2.055678387E1
5.973058820E0,2.496334791E0,-1.790353394E1,5.694484711E0,1.895245026E1
5.978006789E0,1.772662878E0,-1.753455353E1,2.338385820E0,1.777838433E1
5.982954705E0,1.845414042E0,-1.751391602E1,-6.407251358E-1,1.762252354E1
5.987902674E0,2.371454239E0,-1.765559006E1,-3.085830212E0,1.807943593E1
5.992850591E0,3.253788710E0,-1.777757263E1,-5.194867134E0,1.880467692E1
5.997798559E0,4.052208900E0,-1.766532516E1,-6.266362667E0,1.917684571E1
6.002746476E0,4.546971321E0,-1.696559906E1,-6.442749977E0,1.870870190E1
6.007694445E0,4.641668797E0,-1.572259235E1,-6.125701904E0,1.750054923E1
6.012642414E0,4.302467346E0,-1.420510674E1,-5.446254730E0,1.581005924E1
6.017590330E0,3.674224377E0,-1.247104836E1,-4.587314606E0,1.378660318E1
6.022538299E0,3.000789165E0,-1.062135410E1,-3.705191851E0,1.164243726E1
6.027486216E0,2.475551605E0,-8.548777580E0,-2.945904255E0,9.374876306E0
6.032434184E0,2.164298296E0,-6.335032463E0,-2.524958611E0,7.154875220E0
6.037382101E0,1.922902107E0,-4.114172935E0,-2.052898169E0,4.983810023E0
6.042330070E0,1.726977825E0,-1.972087860E0,-1.594068646E0,3.068002247E0
6.047277986E0,1.569403410E0,6.799697876E-4,-1.396750927E0,2.100938047E0
6.052225955E0,1.301029921E0,1.787767410E0,-1.353119135E0,2.592242767E0
6.057173872E0,9.645743370E-1,3.389616013E0,-1.396613359E0,3.790834900E0
6.062121841E0,5.214300156E-1,4.885503292E0,-1.601288557E0,5.167606479E0
6.067069757E0,-1.878896952E-1,6.218435287E0,-1.767138839E0,6.467381204E0
6.072017726E0,-9.353948832E-1,7.407909870E0,-1.729587674E0,7.664435123E0
6.076965643E0,-1.568280697E0,8.492540359E0,-1.507755518E0,8.766759538E0
6.081913611E0,-1.981616139E0,9.496417999E0,-1.202378750E0,9.775196775E0
6.086861528E0,-2.143861294E0,1.036701679E1,-8.502563834E-1,1.062045735E1
6.091809497E0,-2.162740707E0,1.117392731E1,-3.945979476E-1,1.138814324E1
6.096757414E0,-2.177786827E0,1.190048885E1,1.309149861E-1,1.209882346E1
6.101705382E0,-2.190098524E0,1.244651031E1,6.563023925E-1,1.265475734E1
6.106653299E0,-2.249570608E0,1.280271149E1,1.216973901E0,1.305568898E1
6.111601268E0,-2.159137964E0,1.301003838E1,1.863367677E0,1.331897573E1
6.116549184E0,-1.873775601E0,1.290129185E1,2.464192152E0,1.326750200E1
6.121497153E0,-1.522531509E0,1.259161568E1,2.858406067E0,1.300143734E1
6.126445070E0,-1.217616081E0,1.193304634E1,2.864292145E0,1.233224851E1
6.131393039E0,-8.679943085E-1,1.125841331E1,2.955298901E0,1.167214959E1
6.136341007E0,-4.928421378E-1,1.068974304E1,3.146155596E0,1.115400353E1
6.141288924E0,-1.562441587E-1,1.018388462E1,3.178710461E0,1.066958848E1
6.146236893E0,2.040826082E-1,9.714471817E0,2.780162334E0,1.010652834E1
6.151184809E0,6.885597110E-1,9.329260826E0,1.887036204E0,9.543066995E0
6.156132778E0,1.246886015E0,9.049677849E0,8.891475201E-1,9.178342836E0
6.161080695E0,1.744581342E0,8.870779991E0,-5.088201165E-2,9.040845684E0
6.166028664E0,2.145133734E0,8.825880051E0,-9.787844419E-1,9.135413312E0
6.170976580E0,2.540696144E0,8.981699944E0,-1.966588736E0,9.539053518E0
6.175924549E0,2.792400122E0,9.306859016E0,-3.042245388E0,1.018186526E1
6.180872466E0,2.730815172E0,9.576370239E0,-4.019120216E0,1.073860074E1
6.185820434E0,2.439025640E0,9.838274002E0,-4.533258438E0,1.110364415E1
6.190768351E0,1.839733124E0,1.014301205E1,-4.239083290E0,1.114608175E1
6.195716320E0,1.126137376E0,1.040225983E1,-3.395169735E0,1.100010784E1
6.200664236E0,4.731974602E-1,1.067835426E1,-2.496048450E0,1.097640303E1
6.205612205E0,7.900655270E-3,1.088999557E1,-1.682572603E0,1.101921579E1
6.210560122E0,-2.512106001E-1,1.103720093E1,-8.294538856E-1,1.107117450E1
6.215508091E0,-3.879166245E-1,1.109125710E1,-1.261770725E-1,1.109875596E1
6.220456007E0,-3.848067522E-1,1.103781796E1,5.928378105E-1,1.106042305E1
6.225403976E0,-2.472541183E-1,1.093429565E1,1.479628086E0,1.103672303E1
6.230351893E0,-1.678010523E-1,1.076395702E1,2.464681864E0,1.104380300E1
6.235299861E0,-3.202374279E-1,1.051729393E1,3.259616613E0,1.101549473E1
6.240247778E0,-3.077846467E-1,1.050517941E1,3.246244192E0,1.099961941E1
6.245195747E0,-1.005511761E0,9.926259995E0,3.720358372E0,1.064813401E1
6.250143716E0,-1.365109921E0,9.701800346E0,3.362050056E0,1.035817724E1
6.255091632E0,-1.764821529E0,9.451120377E0,2.733074665E0,9.995397367E0
6.260039549E0,-2.199160814E0,9.152785301E0,1.916914940E0,9.606474376E0
6.264987518E0,-2.579222441E0,8.845113754E0,9.953055978E-1,9.267095497E0
6.269935486E0,-2.950036526E0,8.559197426E0,5.223020911E-2,9.053469173E0
6.274883403E0,-3.286833525E0,8.342843056E0,-9.123091102E-1,9.013246517E0
6.279831372E0,-3.606180668E0,8.193519592E0,-1.754365921E0,9.122286013E0
6.284779289E0,-3.876745939E0,8.120655060E0,-2.416422606E0,9.317365287E0
6.289727257E0,-3.941099644E0,8.069073677E0,-2.819577217E0,9.412344665E0
6.294675174E0,-3.876132488E0,8.072188377E0,-2.926463127E0,9.420658931E0
6.299623143E0,-3.675430059E0,8.079668999E0,-2.785698891E0,9.303222859E0
6.304571059E0,-3.359091759E0,8.067532539E0,-2.424022675E0,9.068873394E0
6.309519028E0,-2.979684830E0,8.026212692E0,-2.071596384E0,8.808525611E0
6.314466945E0,-2.566625595E0,7.962836266E0,-1.665950537E0,8.530516956E0
6.319414914E0,-2.055219650E0,7.937193871E0,-1.188490868E0,8.284653577E0
6.324362830E0,-1.551401734E0,7.884672165E0,-6.636989713E-1,8.063212686E0
6.329310799E0,-1.009834170E0,7.819589138E0,-1.535684466E-1,7.886020708E0
6.334258716E0,-5.694799423E-1,7.787411690E0,3.413193822E-1,7.815662937E0
6.339206684E0,-5.343011022E-1,7.771278381E0,3.982510567E-1,7.799798026E0
6.344154601E0,1.095585972E-1,7.893049240E0,1.053390980E0,7.963784399E0
6.349102570E0,4.702645242E-1,7.908470154E0,1.023447990E0,7.988272322E0
6.354050486E0,8.672520518E-1,7.886733055E0,7.224441171E-1,7.967095450E0
6.358998455E0,1.283528328E0,7.751123428E0,2.777111530E-2,7.856725183E0
6.363946372E0,1.729857326E0,7.613712311E0,-7.183973789E-1,7.840734424E0
6.368894341E0,2.100774288E0,7.560371399E0,-1.614369869E0,8.011158367E0
6.373842257E0,2.363512039E0,7.572167873E0,-2.493906021E0,8.315256022E0
6.378790226E0,2.993608475E0,7.487959862E0,-2.764094353E0,8.524755256E0
6.383738143E0,4.434439659E0,6.997544289E0,-6.825242043E-1,8.312383560E0
6.388686111E0,6.648101330E0,5.949696064E0,3.858601332E0,9.720336351E0
6.393634028E0,7.940877914E0,4.127944469E0,6.941051483E0,1.132588466E1
6.398581997E0,7.824098587E0,1.501300812E0,6.640364647E0,1.037134830E1
6.403529966E0,7.952674866E0,-1.755268097E0,4.881414413E0,9.494957098E0
6.408477882E0,8.303503990E0,-5.831624985E0,3.933696747E0,1.088255478E1
6.413425851E0,9.367455482E0,-9.921029091E0,4.302156925E0,1.430680239E1
6.418373768E0,1.129359436E1,-1.405618668E1,5.183094978E0,1.876129343E1
6.423321736E0,1.284625816E1,-1.935807037E1,3.482249737E0,2.349228172E1
6.428269653E0,1.330580902E1,-2.636000824E1,-3.885461330E0,2.978240081E1
6.433217622E0,1.120814991E1,-3.475336456E1,-1.531306076E1,3.959682819E1
6.438165539E0,5.555068970E0,-4.164790344E1,-2.318178940E1,4.798751934E1
6.443113507E0,-4.711134911E0,-4.383677673E1,-2.424571037E1,5.031612324E1
6.448061424E0,-1.734301376E1,-4.163180542E1,-2.064611435E1,4.960090107E1
6.453009393E0,-2.318956757E1,-3.797750092E1,-1.295128441E1,4.634417318E1
6.457957309E0,-1.933388519E1,-3.430030823E1,-6.219043732E0,3.986209686E1
6.462905226E0,-1.112850761E1,-3.079391479E1,-7.522606850E-2,3.274316003E1
6.467853195E0,-2.581956387E0,-2.687524986E1,5.309230804E0,2.751605869E1
6.472801164E0,2.446950436E0,-2.256165314E1,8.816545486E0,2.434640082E1
6.477749080E0,3.438297272E0,-1.831893158E1,9.041733742E0,2.071613119E1
6.482697049E0,3.079516411E0,-1.541424274E1,6.362432480E0,1.695767814E1
6.487644966E0,2.687566996E0,-1.410438347E1,2.091311693E0,1.450966002E1
6.492592934E0,2.312703609E0,-1.393500042E1,-1.575516462E0,1.421320115E1
6.497540851E0,2.261345148E0,-1.485862827E1,-4.013859749E0,1.555646445E1
6.502488820E0,2.699466228E0,-1.647685623E1,-5.433488846E0,1.755838006E1
6.507436736E0,3.693419695E0,-1.805960846E1,-6.149267197E0,1.943204297E1
6.512384705E0,4.939259052E0,-1.900494385E1,-6.400175095E0,2.065300007E1
6.517332622E0,5.883140087E0,-1.900394058E1,-6.594861031E0,2.095837033E1
6.522280591E0,6.298409462E0,-1.794406128E1,-6.815796852E0,2.020184110E1
6.527228507E0,5.923648834E0,-1.646306038E1,-6.714299202E0,1.874043186E1
6.532176476E0,4.992822170E0,-1.473849297E1,-5.943414688E0,1.665759966E1
6.537124393E0,4.004134655E0,-1.278763390E1,-4.839867115E0,1.424713967E1
6.542072361E0,3.227195978E0,-1.067539787E1,-3.805462122E0,1.178390664E1
6.547020278E0,2.617504120E0,-8.413997650E0,-2.852002859E0,9.261781933E0
6.551968247E0,1.975501060E0,-6.125737190E0,-1.906579971E0,6.712846472E0
6.556916164E0,1.478155255E0,-3.786874771E0,-1.104653955E0,4.212555501E0
6.561864132E0,1.123354197E0,-1.591201782E0,-3.927788734E-1,1.986988426E0
6.566812049E0,8.680578470E-1,5.091581345E-1,6.346368790E-2,1.008362074E0
6.571760018E0,5.727903843E-1,2.452253342E0,3.367674351E-1,2.540678567E0
6.576707934E0,2.492430806E-2,4.023159981E0,4.475920796E-1,4.048058315E0
6.581655903E0,-7.078971863E-1,5.313313484E0,5.190109015E-1,5.385331088E0
6.586603820E0,-1.457285881E0,6.435600281E0,5.013557673E-1,6.617551716E0
6.591551789E0,-2.191298962E0,7.409482002E0,4.407057762E-1,7.739278795E0
6.596499705E0,-2.791745424E0,8.259326935E0,5.436556339E-1,8.735324000E0
6.601447674E0,-3.298195839E0,8.980674744E0,6.705581546E-1,9.590634123E0
6.606395591E0,-3.722307682E0,9.530864716E0,8.312851191E-1,1.026567054E1
6.611343559E0,-4.015202999E0,9.931788445E0,9.884542227E-1,1.075822098E1
6.616291476E0,-4.153203964E0,1.032961464E1,1.135712743E0,1.119106274E1
6.621239445E0,-4.064543724E0,1.074592781E1,1.327281952E0,1.156534295E1
6.626187414E0,-3.638992786E0,1.125010109E1,1.535785794E0,1.192332508E1
6.631135330E0,-2.834788084E0,1.169855690E1,1.907076597E0,1.218725556E1
6.636083299E0,-1.897158146E0,1.195268536E1,2.273633957E0,1.231402889E1
6.641031216E0,-1.003441453E0,1.201507282E1,2.533539534E0,1.232021478E1
6.645979184E0,-2.372820824E-1,1.188353729E1,2.706776381E0,1.219021738E1
6.650927101E0,3.682085574E-1,1.151760483E1,2.665636063E0,1.182778145E1
6.655875070E0,9.161570668E-1,1.110889721E1,2.558177471E0,1.143639860E1
6.660822986E0,1.380450010E0,1.073398495E1,2.434814930E0,1.109289858E1
6.665770903E0,1.737796068E0,1.045974636E1,2.107206821E0,1.081048332E1
6.670718872E0,1.962307572E0,1.025495815E1,1.594935656E0,1.056213224E1
6.675666841E0,2.121731281E0,1.013863277E1,1.003755093E0,1.040678348E1
6.680614757E0,2.256660461E0,1.008914375E1,3.167648613E-1,1.034329145E1
6.685562726E0,2.414810896E0,1.013747311E1,-3.726581931E-1,1.042777765E1
6.690510643E0,2.544556618E0,1.030267143E1,-1.010513544E0,1.066025068E1
6.695458611E0,2.778968334E0,1.055356312E1,-1.614669323E0,1.103211297E1
6.700406528E0,3.014769077E0,1.072511387E1,-2.147996664E0,1.134595918E1
6.705354497E0,3.061527729E0,1.077447319E1,-2.415904999E0,1.145856979E1
6.710302414E0,2.961212873E0,1.076885509E1,-2.262299061E0,1.139539463E1
6.715250382E0,2.772653818E0,1.075862122E1,-1.745831132E0,1.124648683E1
6.720198299E0,2.446630239E0,1.075098991E1,-1.099084854E0,1.108051313E1
6.725146268E0,2.088902950E0,1.074358559E1,-4.584402442E-1,1.095437421E1
6.730094184E0,1.749712467E0,1.073633766E1,2.648240328E-2,1.087801183E1
6.735042153E0,1.397386193E0,1.071015549E1,5.252773166E-1,1.081369664E1
6.739990070E0,1.098467946E0,1.066504574E1,1.107535124E0,1.077851875E1
6.744938039E0,7.636634111E-1,1.057237434E1,1.746393919E0,1.074281959E1
6.749885955E0,3.148517609E-1,1.030305386E1,2.317898512E0,1.056525929E1
6.754833924E0,-2.408642471E-1,9.955316544E0,2.779333353E0,1.033881216E1
6.759781841E0,-8.596756458E-1,9.636772156E0,2.993251324E0,1.012748603E1
6.764729809E0,-1.429805040E0,9.387921333E0,2.834421158E0,9.910164111E0
6.769677726E0,-1.956267834E0,9.239706039E0,2.461722612E0,9.760083491E0
6.774625695E0,-2.379710197E0,9.134555817E0,1.938171268E0,9.636370606E0
6.779573611E0,-2.714831352E0,9.093877792E0,1.319619656E0,9.581770119E0
6.784521580E0,-2.961802244E0,9.086523056E0,7.015349865E-1,9.582761873E0
6.789469497E0,-3.163221359E0,9.086102486E0,9.403771162E-2,9.621438086E0
6.794417466E0,-3.361701012E0,9.102174759E0,-5.077451468E-1,9.716399753E0
6.799365382E0,-3.463334799E0,9.091686249E0,-1.130215645E0,9.794428732E0
6.804313351E0,-3.420470715E0,9.090454102E0,-1.674588919E0,9.855974012E0
6.809261320E0,-3.203984499E0,9.134258270E0,-2.142735243E0,9.914207237E0
6.814209236E0,-3.005696058E0,9.184705734E0,-2.460192680E0,9.972240282E0
6.819157205E0,-2.808112144E0,9.201062202E0,-2.566918373E0,9.956611341E0
6.824105122E0,-2.566323280E0,9.166627884E0,-2.434992790E0,9.825592696E0
6.829053091E0,-2.263596535E0,9.081428528E0,-2.117448330E0,9.595822050E0
6.834001007E0,-1.952719212E0,9.022090912E0,-1.727772593E0,9.391295697E0
6.838948976E0,-1.657487750E0,8.919232368E0,-1.323737264E0,9.168001529E0
6.843896893E0,-1.401915073E0,8.811234474E0,-8.775823116E-1,8.965119606E0
6.848844861E0,-1.218873262E0,8.714864731E0,-3.873330355E-1,8.808209023E0
6.853792778E0,-1.122644663E0,8.632520676E0,1.011579037E-1,8.705801352E0
6.858740747E0,-9.838862419E-1,8.585597038E0,4.952237606E-1,8.655966452E0
6.863688664E0,-7.677211761E-1,8.478273392E0,6.616239548E-1,8.538633484E0
6.868636632E0,-4.915567636E-1,8.255234718E0,5.430518985E-1,8.287667565E0
6.873584549E0,-1.452692747E-1,7.899482727E0,7.237720490E-2,7.901149852E0
6.878532518E0,1.846276820E-1,7.434720993E0,-6.314733028E-1,7.463773989E0
6.883480434E0,3.659970462E-1,6.923155785E0,-1.363085270E0,7.065553150E0
6.888428403E0,4.958110154E-1,6.341397285E0,-1.917824507E0,6.643583290E0
6.893376320E0,8.091615438E-1,5.542570114E0,-1.826982260E0,5.891747623E0
6.898324289E0,1.519154072E0,4.352144718E0,-2.091690302E-1,4.614406183E0
6.903272205E0,2.801048994E0,2.764631271E0,2.817315817E0,4.840075407E0
6.908220174E0,3.658992052E0,6.596899033E-1,5.105930328E0,6.316164827E0
6.913168091E0,3.831515312E0,-1.747773170E0,4.956184387E0,6.503766933E0
6.918116059E0,4.403166294E0,-4.455608368E0,3.294721603E0,7.077818151E0
6.923063976E0,6.391205311E0,-7.188048363E0,1.578882575E0,9.747226004E0
6.928011945E0,9.194331169E0,-9.944291115E0,1.377821922E0,1.361334069E1
6.932959861E0,1.214223194E1,-1.335940552E1,2.729550838E0,1.825809300E1
6.937907830E0,1.577955341E1,-1.796019363E1,4.421258926E0,2.431276191E1
6.942855747E0,1.931223297E1,-2.396205139E1,5.197669983E0,3.121150465E1
6.947803716E0,1.988251305E1,-3.063367081E1,1.614331961E0,3.655601428E1
6.952751632E0,1.387476921E1,-3.531697845E1,-7.269616127E0,3.863477069E1
6.957699601E0,1.582695127E0,-3.487065506E1,-1.669057465E1,3.869163721E1
6.962647518E0,-1.117092991E1,-3.019380760E1,-2.348313713E1,3.984863137E1
6.967595486E0,-1.774796486E1,-2.543911552E1,-2.227632523E1,3.818865697E1
6.972543403E0,-1.703122711E1,-2.212344742E1,-1.539891434E1,3.188473279E1
6.977491372E0,-1.103606510E1,-2.045854187E1,-7.968856812E0,2.457334628E1
6.982439289E0,-4.053193569E0,-2.005767441E1,-8.508250713E-1,2.048078573E1
6.987387257E0,1.134374380E0,-1.985281944E1,5.634386063E0,2.066803211E1
6.992335174E0,1.133984804E0,-1.981586075E1,5.593104362E0,2.062127724E1
6.997283143E0,4.512786865E0,-2.037374306E1,1.164908791E1,2.389886818E1
7.002231059E0,2.496040344E0,-2.093307114E1,9.816885948E0,2.325499805E1
7.007179028E0,-4.195969403E-1,-2.166033936E1,5.360454082E0,2.231772458E1
7.012126945E0,-2.707784653E0,-2.246060753E1,7.542958260E-1,2.263581124E1
7.017074914E0,-3.815249920E0,-2.310777855E1,-3.101947308E0,2.362514843E1
7.022022830E0,-3.708907127E0,-2.330472183E1,-5.630851746E0,2.426051407E1
7.026970799E0,-2.536515236E0,-2.277009964E1,-6.882964611E0,2.392251134E1
7.031918716E0,-9.995612502E-1,-2.159896088E1,-6.821528912E0,2.267261543E1
7.036866684E0,3.334316015E-1,-1.994418907E1,-6.048505783E0,2.084385465E1
7.041814601E0,1.361928105E0,-1.821193886E1,-5.142881393E0,1.897310713E1
7.046762570E0,2.103631496E0,-1.644900703E1,-4.199639320E0,1.710649199E1
7.051710486E0,2.685525417E0,-1.443399620E1,-3.321591377E0,1.505274933E1
7.056658455E0,3.119078398E0,-1.223954487E1,-2.444905758E0,1.286517286E1
7.061606372E0,3.453581810E0,-9.952421188E0,-1.515349269E0,1.064303520E1
7.066554341E0,3.673242331E0,-7.637457848E0,-7.373887300E-1,8.506892131E0
7.071502257E0,3.621904850E0,-5.392821312E0,-1.595157385E-1,6.498166027E0
7.076450226E0,3.336356401E0,-3.321139336E0,2.817748785E-1,4.715998050E0
7.081398143E0,2.955490112E0,-1.326421738E0,5.253535509E-1,3.281815471E0
7.086346111E0,2.649269581E0,5.556659698E-1,4.986489415E-1,2.752461580E0
7.091294028E0,2.345694542E0,2.323004723E0,3.061310053E-1,3.315471312E0
7.096241997E0,2.023282051E0,3.858750343E0,-1.130169630E-1,4.358485666E0
7.101189966E0,1.613801241E0,5.091581821E0,-8.163573742E-1,5.403239700E0
7.106137882E0,9.729673266E-1,5.900059700E0,-1.686769485E0,6.213095942E0
7.111085799E0,1.456997097E-1,6.464372158E0,-2.389589787E0,6.893437107E0
7.116033768E0,-6.300828457E-1,6.926282406E0,-2.644786119E0,7.440785306E0
7.120981684E0,-1.191517472E0,7.353155136E0,-2.540839911E0,7.870481040E0
7.125929653E0,-1.467285275E0,7.853016376E0,-2.244486094E0,8.298223311E0
7.130877570E0,-1.515274048E0,8.418755531E0,-1.898508310E0,8.762182031E0
7.135825539E0,-1.501336336E0,9.017080307E0,-1.441501379E0,9.254170643E0
7.140773507E0,-1.463673592E0,9.648102760E0,-1.011657596E0,9.810793971E0
7.145721424E0,-1.405217648E0,1.031189060E1,-5.888649821E-1,1.042384221E1
7.150669393E0,-1.285389781E0,1.096538067E1,-2.666677833E-1,1.104368199E1
7.155617309E0,-1.270540714E0,1.095337963E1,-2.884013653E-1,1.103059266E1
7.160565278E0,-2.370214015E-1,1.172796059E1,5.870717764E-2,1.173050234E1
7.165513195E0,2.882301509E-1,1.171230507E1,-1.097190380E-2,1.171585622E1
7.170461164E0,6.051391959E-1,1.147640610E1,2.814596891E-2,1.149238368E1
7.175409080E0,7.476033568E-1,1.110184288E1,2.788839340E-1,1.113048078E1
7.180357049E0,8.711984158E-1,1.067003918E1,6.678180099E-1,1.072635556E1
7.185304966E0,8.947450519E-1,1.028149986E1,1.115895033E0,1.038051202E1
7.190252934E0,8.567227721E-1,9.957629204E0,1.547511101E0,1.011351293E1
7.195200851E0,7.666974068E-1,9.640920639E0,1.733655691E0,9.825514630E0
7.200148820E0,6.657093763E-1,9.309701920E0,1.607083797E0,9.470820299E0
7.205096736E0,6.176059842E-1,9.092972755E0,1.045222878E0,9.173662385E0
7.210044705E0,5.518470407E-1,9.067011833E0,2.735454440E-1,9.087907672E0
7.214992622E0,5.177072883E-1,9.303214073E0,-5.118466616E-1,9.331655798E0
7.219940591E0,3.464644551E-1,9.748656273E0,-1.224283934E0,9.831338052E0
7.224888507E0,3.218729794E-2,1.023104095E1,-1.689731598E0,1.036968794E1
7.229836476E0,-2.704582810E-1,1.066436958E1,-1.846116662E0,1.082636010E1
7.234784393E0,-5.146649480E-1,1.104408932E1,-1.867943525E0,1.121276067E1
7.239732361E0,-7.510115504E-1,1.137525463E1,-1.687688112E0,1.152426689E1
7.244680278E0,-1.174890637E0,1.155781746E1,-1.429611325E0,1.170501179E1
7.249628247E0,-2.089471817E0,1.145854092E1,-1.003531218E0,1.169064272E1
7.254576164E0,-2.823229551E0,1.129811668E1,-1.726255417E-1,1.164679635E1
7.259524132E0,-3.005186319E0,1.122995472E1,7.715442181E-1,1.165067845E1
7.264472049E0,-2.886270523E0,1.109627151E1,1.577181339E0,1.157347398E1
7.269420018E0,-2.530639648E0,1.092824268E1,2.325951099E0,1.145603220E1
7.274367934E0,-2.160819292E0,1.071613312E1,3.110495090E0,1.136573045E1
7.279315903E0,-1.890440583E0,1.046450996E1,3.614636660E0,1.123144392E1
7.284263820E0,-1.496599436E0,1.034535980E1,4.005212307E0,1.119410581E1
7.289211789E0,-1.095763206E0,1.039648914E1,4.396801949E0,1.134105599E1
7.294159705E0,-8.616670966E-1,1.042613411E1,4.621737003E0,1.143709734E1
7.299107674E0,-7.322071791E-1,1.045794487E1,4.515209675E0,1.141454584E1
7.304055591E0,-7.146793008E-1,1.043429947E1,4.117974281E0,1.124024395E1
7.309003559E0,-7.938262820E-1,1.032628250E1,3.466393948E0,1.092145400E1
7.313951476E0,-9.356477857E-1,1.017946243E1,2.708912849E0,1.057521163E1
7.318899445E0,-1.003333211E0,1.003689957E1,1.936760664E0,1.027117677E1
7.323847361E0,-1.006264567E0,9.917803764E0,1.294996142E0,1.005248302E1
7.328795330E0,-1.101562858E0,9.829427719E0,7.345987558E-1,9.918201719E0
7.333743247E0,-1.161463618E0,9.645035744E0,3.602061272E-1,9.721391911E0
7.338691216E0,-1.194989681E0,9.469979286E0,1.233968735E-1,9.545875277E0
7.343639132E0,-1.096074700E0,9.251811028E0,1.826956272E-1,9.318302674E0
7.348587101E0,-9.192522764E-1,9.005084038E0,4.887085557E-1,9.065064772E0
7.353535018E0,-7.284973860E-1,8.751503944E0,8.702299595E-1,8.824784978E0
7.358482986E0,-4.757845104E-1,8.498392105E0,1.223402381E0,8.599171626E0
7.363430903E0,-1.564269066E-1,8.255353928E0,1.497821927E0,8.391591528E0
7.368378872E0,2.056591958E-1,8.132432938E0,1.647785425E0,8.300238430E0
7.373326789E0,5.456078649E-1,8.064808846E0,1.585800409E0,8.237329215E0
7.378274757E0,9.371421933E-1,8.080934525E0,1.251144886E0,8.230741267E0
7.383222674E0,1.424904585E0,8.060854912E0,7.298173308E-1,8.218294733E0
7.388170643E0,1.935572863E0,8.006894112E0,1.351689100E-1,8.238632548E0
7.393118559E0,2.426581621E0,7.892571449E0,-3.854452372E-1,8.266169033E0
7.398066528E0,2.722545862E0,7.677155495E0,-9.484004974E-1,8.200636315E0
7.403014445E0,2.824231148E0,7.301028252E0,-1.649844170E0,8.000205053E0
7.407962414E0,2.707916498E0,6.724044323E0,-2.106880426E0,7.548809770E0
7.412910330E0,2.490792513E0,5.882311821E0,-1.820396900E0,6.642249963E0
7.417858299E0,2.366767406E0,4.601889133E0,-5.919994116E-1,5.208592406E0
7.422806216E0,2.783269167E0,2.911854744E0,1.317805171E0,4.238171277E0
7.427754184E0,3.852871656E0,9.626445770E-1,2.678599358E0,4.790219108E0
7.432702101E0,4.756104469E0,-1.114957809E0,3.190418720E0,5.834589296E0
7.437650070E0,5.372376442E0,-3.448693275E0,2.783126593E0,6.964316734E0
7.442597986E0,6.225572586E0,-6.031658173E0,1.908741593E0,8.875919603E0
7.447545955E0,7.543920040E0,-9.048333168E0,1.680416822E0,1.189986821E1
7.452493872E0,9.101505280E0,-1.310149097E1,2.113465071E0,1.609202283E1
7.457441841E0,1.083063698E1,-1.854953194E1,2.277002573E0,2.160029104E1
7.462389757E0,1.369371796E1,-2.540084076E1,1.277163029E0,2.888514788E1
7.467337726E0,1.528365231E1,-3.240945053E1,-1.699936390E0,3.587272355E1
7.472285643E0,1.200386333E1,-3.612636566E1,-6.680309296E0,3.865014312E1
7.477233611E0,3.280499935E0,-3.437204742E1,-1.349814415E1,3.707289063E1
7.482181528E0,-5.810528755E0,-2.938603592E1,-2.135462952E1,3.678751899E1
7.487129497E0,-1.049377155E1,-2.385224915E1,-2.467141151E1,3.588492130E1
7.492077414E0,-1.077993298E1,-2.009903908E1,-2.048779869E1,3.065824884E1
7.497025382E0,-8.261149406E0,-1.933619690E1,-1.328297806E1,2.487111992E1
7.501973299E0,-4.801093102E0,-1.998012543E1,-5.930841446E0,2.138763164E1
7.506921268E0,-2.167029381E0,-2.037611198E1,1.356075287E0,2.053584418E1
7.511869184E0,-3.957234323E-1,-2.052599716E1,7.363778591E0,2.181051104E1
7.516817153E0,7.698372602E-1,-2.033527756E1,1.087125397E1,2.307163465E1
7.521765070E0,7.194409966E-1,-2.044324303E1,1.243545628E1,2.393918030E1
7.526713039E0,-2.271135449E-1,-2.090682602E1,1.183705902E1,2.402629645E1
7.531660955E0,-1.634140015E0,-2.173668671E1,9.807740211E0,2.390283938E1
7.536608924E0,-2.617877960E0,-2.299084473E1,6.940725327E0,2.415793647E1
7.541556841E0,-2.425805092E0,-2.390480042E1,3.863116264E0,2.433613939E1
7.546504809E0,-1.242164135E0,-2.368022156E1,1.594600081E0,2.376633363E1
7.551452726E0,4.736523628E-1,-2.235773849E1,-1.140251160E-1,2.236304583E1
7.556400695E0,2.132453203E0,-2.049991608E1,-1.359112740E0,2.065529238E1
7.561348611E0,3.532502174E0,-1.861194611E1,-2.554375887E0,1.911564662E1
7.566296580E0,4.601742268E0,-1.667201042E1,-3.735122681E0,1.769415454E1
7.571244497E0,5.330534458E0,-1.477732849E1,-4.655135632E0,1.638457576E1
7.576192466E0,5.628262043E0,-1.296451759E1,-5.051065445E0,1.500897439E1
7.581140382E0,5.438069820E0,-1.104476452E1,-4.564004421E0,1.312972060E1
7.586088351E0,4.833127022E0,-9.089726448E0,-3.279532671E0,1.080451657E1
7.591036268E0,3.992631435E0,-7.115970612E0,-1.773365140E0,8.350027991E0
7.595984236E0,2.993339539E0,-5.221748352E0,-6.033399105E-1,6.049029384E0
7.600932153E0,1.834252238E0,-3.483495712E0,-6.597614288E-2,3.937458127E0
7.605880122E0,6.384692192E-1,-1.881970406E0,-3.772044182E-1,2.022804668E0
7.610828039E0,-3.867351711E-1,-4.549837112E-1,-1.182854414E0,1.325035409E0
7.615776007E0,-1.481616735E0,8.746690750E-1,-1.581210375E0,2.336762802E0
7.620723924E0,-2.404208183E0,2.231877327E0,-1.454434872E0,3.588436176E0
7.625671893E0,-2.817999363E0,3.624053955E0,-1.576260805E0,4.853811451E0
7.630619809E0,-2.788485765E0,4.941373825E0,-2.082885027E0,6.044107724E0
7.635567778E0,-2.689029694E0,6.098027229E0,-2.731873512E0,7.202773748E0
7.640515695E0,-2.509379387E0,6.972408295E0,-3.499911547E0,8.195171943E0
7.645463664E0,-2.339841843E0,7.713349342E0,-4.016819954E0,9.005857009E0
7.650411580E0,-2.200426579E0,8.514817238E0,-4.043860435E0,9.679710582E0
7.655359549E0,-1.960550070E0,9.357711792E0,-3.935651541E0,1.033923980E1
7.660307466E0,-1.691180706E0,1.018944740E1,-3.785483360E0,1.100067338E1
7.665255434E0,-1.570463896E0,1.089297485E1,-3.448570251E0,1.153325170E1
7.670203351E0,-1.551655054E0,1.132983875E1,-2.767593861E0,1.176573225E1
7.675151320E0,-1.396901011E0,1.155545044E1,-1.792604089E0,1.177680758E1
7.680099236E0,-1.053805590E0,1.153187561E1,-5.840770006E-1,1.159464563E1
7.685047205E0,-7.990394235E-1,1.124513435E1,4.484095573E-1,1.128240142E1
7.689995122E0,-6.949557066E-1,1.072669220E1,1.206733346E0,1.081670441E1
7.694943091E0,-5.425446033E-1,1.020880127E1,1.716911912E0,1.036637663E1
7.699891059E0,-1.569505334E-1,9.626920700E0,1.995635033E0,9.832842662E0
7.704838976E0,2.160734534E-1,9.024192810E0,2.185978174E0,9.287693158E0
7.709786893E0,6.602596641E-1,8.414978981E0,2.242947102E0,8.733763552E0
7.714734861E0,1.280296445E0,7.957044601E0,1.709717512E0,8.238740908E0
7.719682830E0,1.989678383E0,7.690812111E0,7.718497515E-1,7.981426128E0
7.724630747E0,2.661243916E0,7.647047520E0,-2.029602230E-1,8.099428856E0
7.729578664E0,3.091563463E0,7.880436897E0,-1.050914288E0,8.530150713E0
7.734526632E0,3.230028629E0,8.450320244E0,-1.970283628E0,9.258672407E0
7.739474601E0,3.088531733E0,9.227020264E0,-2.865186930E0,1.014328484E1
7.744422518E0,3.282257795E0,1.015978813E1,-4.612732887E0,1.163064125E1
7.749370486E0,3.661992788E0,1.105202770E1,-7.230018616E0,1.370513322E1
7.754318403E0,4.027508259E0,1.192517757E1,-9.360890388E0,1.568620259E1
7.759266372E0,3.689395428E0,1.244948864E1,-9.770677567E0,1.625015526E1
7.764214289E0,2.673226357E0,1.267615986E1,-8.687690735E0,1.559830562E1
7.769162205E0,1.490154743E0,1.268757248E1,-6.589192390E0,1.437402216E1
7.774110174E0,3.492240608E-1,1.249660301E1,-4.024374008E0,1.313326427E1
7.779058091E0,-5.655632615E-1,1.220926285E1,-1.092228413E0,1.227106043E1
7.784006059E0,-1.122654080E0,1.183797455E1,2.061261892E0,1.206842136E1
7.788953976E0,-1.555697680E0,1.129913712E1,4.846180916E0,1.239258505E1
7.793901945E0,-2.071855068E0,1.060448551E1,6.786327839E0,1.275938642E1
7.798849914E0,-2.490432978E0,1.002855015E1,7.697217464E0,1.288492263E1
7.803797830E0,-2.512319565E0,9.778558731E0,7.530821323E0,1.259544482E1
7.808745799E0,-2.498899460E0,9.767663956E0,7.510951042E0,1.257243585E1
7.813693716E0,-2.131882191E0,1.021771812E1,6.175942898E0,1.212802358E1
7.818641684E0,-2.182310581E0,1.054231644E1,5.536100864E0,1.210583860E1
7.823589601E0,-2.398193121E0,1.075841141E1,4.643315315E0,1.196056535E1
7.828537570E0,-2.690035343E0,1.075631714E1,3.556099892E0,1.164390377E1
7.833485486E0,-2.989571810E0,1.062733746E1,2.471657038E0,1.131313085E1
7.838433455E0,-3.305487394E0,1.043151760E1,1.374720573E0,1.102871992E1
7.843381372E0,-3.571798563E0,1.024558163E1,3.170249462E-1,1.085496166E1
7.848329341E0,-3.833584785E0,1.008868599E1,-6.467846632E-1,1.081185866E1
7.853277257E0,-4.032897949E0,9.905801773E0,-1.382792950E0,1.078430763E1
7.858225226E0,-4.131522179E0,9.730485916E0,-1.741199255E0,1.071371115E1
7.863173143E0,-4.107943058E0,9.536367416E0,-1.702715397E0,1.052220221E1
7.868121111E0,-3.943341732E0,9.311548233E0,-1.450097203E0,1.021555953E1
7.873069028E0,-3.654686451E0,9.065553665E0,-1.140663147E0,9.840838822E0
7.878016997E0,-3.280899048E0,8.781641006E0,-6.955359578E-1,9.400281251E0
7.882964914E0,-2.838973045E0,8.545959473E0,-1.678038239E-1,9.006739109E0
7.887912882E0,-2.355500460E0,8.308215141E0,4.616272748E-1,8.648000982E0
7.892860799E0,-1.871145487E0,8.099505424E0,1.094418287E0,8.384564684E0
7.897808768E0,-1.321771383E0,7.946088791E0,1.613345385E0,8.215247409E0
7.902756684E0,-7.819013596E-1,7.843028545E0,2.019301176E0,8.136463835E0
7.907704653E0,-7.587909698E-1,7.833205700E0,2.019250870E0,8.124792265E0
7.912652570E0,4.616036117E-1,7.586412907E0,2.054767370E0,7.873297126E0
7.917600539E0,1.174178243E0,7.447151184E0,1.775473118E0,7.745389603E0
7.922548455E0,1.767975807E0,7.247732162E0,1.243294001E0,7.563143521E0
7.927496424E0,2.254492998E0,7.033473492E0,4.197226763E-1,7.397881802E0
7.932444341E0,2.498127222E0,6.792257786E0,-6.671621203E-1,7.267772062E0
7.937392309E0,2.504709721E0,6.401893616E0,-1.811897159E0,7.109204172E0
7.942340226E0,2.568219185E0,5.673593521E0,-2.491211176E0,6.707573805E0
7.947288195E0,2.932748556E0,4.411733150E0,-2.240960121E0,5.752069693E0
7.952236111E0,3.852873087E0,2.614731789E0,-1.272701979E0,4.827134106E0
7.957184080E0,4.761163712E0,3.453559875E-1,-1.760911942E-1,4.776919379E0
7.962131997E0,5.269023418E0,-2.221684456E0,5.078878403E-1,5.740769954E0
7.967079966E0,5.594217300E0,-5.287400246E0,1.458152533E-1,7.698904510E0
7.972027882E0,6.122348309E0,-9.023589134E0,-6.156542301E-1,1.092187437E1
7.976975851E0,7.002537251E0,-1.345825291E1,-4.289984703E-1,1.517709257E1
7.981923768E0,8.129318237E0,-1.882237625E1,9.207594991E-1,2.052353432E1
7.986871736E0,1.044270802E1,-2.529887772E1,2.186774254E0,2.745660842E1
7.991819653E0,1.218070698E1,-3.270455551E1,1.365271330E0,3.492594364E1
7.996767622E0,9.390743256E0,-3.713252258E1,-3.129704475E0,3.842922511E1
8.001715539E0,2.552062750E0,-3.530880356E1,-1.074374866E1,3.699530738E1
8.006663507E0,-5.063360214E0,-2.964112282E1,-1.726724434E1,3.467551738E1
8.011611424E0,-9.670246124E0,-2.457683945E1,-1.796742439E1,3.194312190E1
8.016559393E0,-1.032613468E1,-2.243213654E1,-1.343762207E1,2.811404442E1
8.021507309E0,-7.253625870E0,-2.350844383E1,-7.931439400E0,2.584897968E1
8.026455226E0,-1.669889927E0,-2.516878510E1,-3.797003031E0,2.550830272E1
8.031403195E0,3.307236433E0,-2.590468216E1,-9.794371128E-1,2.613330572E1
8.036351111E0,5.890715122E0,-2.565497971E1,2.348680973E0,2.642716047E1
8.041299080E0,5.998618126E0,-2.466935730E1,5.639286995E0,2.600696381E1
8.046246997E0,4.450754166E0,-2.309249878E1,6.273634911E0,2.433990977E1
8.051194966E0,2.925211668E0,-2.207091141E1,5.440870285E0,2.291909822E1
8.056142882E0,2.180111885E0,-2.164908218E1,3.737969398E0,2.207732009E1
8.061090851E0,2.197486401E0,-2.154823685E1,1.496383667E0,2.171162412E1
8.066038768E0,2.735924721E0,-2.127721405E1,-7.784757614E-1,2.146651221E1
8.070986736E0,3.444561481E0,-2.062321091E1,-2.751058817E0,2.108910042E1
8.075934653E0,4.031344891E0,-1.946512604E1,-3.986447573E0,2.027398919E1
8.080882622E0,4.210948944E0,-1.795983124E1,-4.646424770E0,1.902306212E1
8.085830539E0,3.953638554E0,-1.623311996E1,-4.834113121E0,1.739293222E1
8.090778507E0,3.421108723E0,-1.441054153E1,-4.511388302E0,1.548290401E1
8.095726424E0,2.805838823E0,-1.253831577E1,-3.739138603E0,1.338145177E1
8.100674393E0,2.318882227E0,-1.057414532E1,-2.720990658E0,1.116214828E1
8.105622309E0,2.002560854E0,-8.501926422E0,-1.761139750E0,8.910365654E0
8.110570278E0,1.913124084E0,-6.274552345E0,-1.154628754E0,6.660571932E0
8.115518195E0,1.854702711E0,-4.054957390E0,-7.740731239E-1,4.525681250E0
8.120466164E0,1.660864711E0,-1.833575249E0,-5.925758481E-1,2.543937090E0
8.125414080E0,1.272827387E0,1.770324707E-1,-5.363841057E-1,1.392529339E0
8.130362049E0,5.247334242E-1,2.003837585E0,-6.531481147E-1,2.171937544E0
8.135309966E0,-3.115945756E-1,3.551763535E0,-7.750183940E-1,3.648666729E0
8.140257934E0,-1.160041451E0,4.864663124E0,-6.579568982E-1,5.044160065E0
8.145205851E0,-1.969364166E0,5.981372833E0,-4.375168085E-1,6.312419278E0
8.150153820E0,-2.638704777E0,6.852141380E0,-3.184576035E-1,7.349559146E0
8.155101736E0,-3.027402878E0,7.506114483E0,-1.968062520E-1,8.096027144E0
8.160049705E0,-3.158046246E0,7.946062565E0,-1.074765325E-1,8.551299175E0
8.164997622E0,-3.186334610E0,8.248832703E0,3.766974807E-2,8.842928712E0
8.169945591E0,-3.238604784E0,8.546176910E0,2.211986035E-1,9.141916077E0
8.174893507E0,-3.235364676E0,8.912247658E0,2.237886786E-1,9.483977239E0
8.179841476E0,-3.162677050E0,9.385219574E0,1.875486076E-1,9.905556373E0
8.184789393E0,-2.946617603E0,1.002718544E1,2.884021103E-1,1.045515083E1
8.189737361E0,-2.686121464E0,1.060839939E1,5.453837514E-1,1.095677095E1
8.194685278E0,-2.332085848E0,1.106440544E1,9.789459109E-1,1.134980296E1
8.199633247E0,-1.760964513E0,1.128536606E1,1.457835913E0,1.151458938E1
8.204581164E0,-1.176494718E0,1.117117786E1,1.713810086E0,1.136294415E1
8.209529132E0,-6.309658289E-1,1.087051105E1,1.686150789E0,1.101858580E1
8.214477049E0,-1.435010433E-1,1.047686100E1,1.466596842E0,1.057998654E1
8.219425018E0,3.650180995E-1,1.010509872E1,9.904435873E-1,1.016008056E1
8.224372934E0,9.062747359E-1,9.783876419E0,1.897409856E-1,9.827592448E0
8.229320903E0,1.494941115E0,9.501134872E0,-8.187947273E-1,9.652815010E0
8.234268820E0,2.130763531E0,9.280673981E0,-1.876276135E0,9.705229255E0
8.239216789E0,2.654396057E0,9.081684113E0,-2.826701641E0,9.874869463E0
8.244164705E0,2.984935760E0,8.959038734E0,-3.666205406E0,1.012991997E1
8.249112674E0,3.154185772E0,9.010564804E0,-4.548573017E0,1.057490815E1
8.254060591E0,3.226666927E0,9.310069084E0,-5.405903339E0,1.123888592E1
8.259008559E0,3.234800339E0,9.828489304E0,-6.152341843E0,1.203804159E1
8.263956476E0,3.154651403E0,1.034321976E1,-6.697598934E0,1.271974260E1
8.268904445E0,2.762742043E0,1.079229736E1,-6.715631962E0,1.300792599E1
8.273852361E0,2.132828236E0,1.123356342E1,-6.082213402E0,1.295126339E1
8.278800330E0,1.496470213E0,1.171760845E1,-5.011029243E0,1.283168676E1
8.283748247E0,9.364333749E-1,1.209650230E1,-3.633775949E0,1.266517284E1
8.288696216E0,3.104237318E-1,1.227507019E1,-1.828139544E0,1.241433870E1
8.293644132E0,-3.183451295E-1,1.214847088E1,2.839354873E-1,1.215595770E1
8.298592101E0,-8.688759804E-1,1.183421898E1,2.212876558E0,1.207064650E1
8.303540018E0,-1.251632094E0,1.150926876E1,3.762630701E0,1.217321815E1
8.308487986E0,-1.571508527E0,1.113742638E1,4.943921089E0,1.228634450E1
8.313435903E0,-1.794584870E0,1.077574539E1,5.679600239E0,1.231239548E1
8.318383872E0,-1.927665114E0,1.054104996E1,5.966355324E0,1.226486946E1
