"Time (s)","Linear Acceleration x (m/s^2)","Linear Acceleration y (m/s^2)","Linear Acceleration z (m/s^2)","Absolute acceleration (m/s^2)"
1.067319360E-1,-4.018011093E-1,1.601693630E-1,4.887683392E0,4.906785841E0
1.117790710E-1,-2.870309353E-1,1.862781048E-1,4.492407322E0,4.505420051E0
1.168262070E-1,-1.046532393E-1,2.561376095E-1,4.163814545E0,4.172997764E0
1.218733420E-1,9.786295891E-2,3.202555180E-1,3.828145981E0,3.842764943E0
1.269204780E-1,2.731516361E-1,3.973267078E-1,3.557471275E0,3.589997521E0
1.319676130E-1,4.443385005E-1,5.127308369E-1,3.395953178E0,3.463066214E0
1.370147480E-1,5.920400023E-1,6.349453926E-1,3.400951862E0,3.510005781E0
1.420618840E-1,7.363532782E-1,7.204623222E-1,3.450620174E0,3.601119506E0
1.471090190E-1,7.834127545E-1,7.725634575E-1,3.518314838E0,3.686343601E0
1.521561550E-1,2.606326938E-1,6.043086052E-1,3.697268009E0,3.755384005E0
1.572032900E-1,2.251914144E-1,5.438835621E-1,3.585583687E0,3.633583751E0
1.622504260E-1,3.142135739E-1,5.347735882E-1,3.458190918E0,3.513374074E0
1.672975610E-1,2.869797051E-1,6.555190086E-1,3.015206337E0,3.098956563E0
1.723446960E-1,1.932668239E-1,8.593795300E-1,2.369133949E0,2.527584007E0
1.773918320E-1,1.540074795E-1,1.145525455E0,1.930892944E0,2.250398728E0
1.824389670E-1,-4.733515531E-2,1.310160398E0,1.972801208E0,2.368692782E0
1.874861030E-1,-3.803949058E-1,1.278680086E0,2.062291145E0,2.456169338E0
1.925332380E-1,-5.646377206E-1,1.069052458E0,2.044098854E0,2.374874531E0
1.975803730E-1,-3.643155098E-1,3.120775223E-1,1.260882378E0,1.349052460E0
2.026275090E-1,-3.762903214E-1,-1.967062950E-1,1.326788902E0,1.393074500E0
2.076746440E-1,-4.726853669E-1,-7.324116230E-1,1.362120628E0,1.617167539E0
2.127217800E-1,-2.672380507E-1,-1.141191006E0,1.217938423E0,1.690297929E0
2.177689150E-1,1.518518329E-1,-1.440148592E0,8.643560410E-1,1.686475114E0
2.228160510E-1,8.786139488E-1,-1.436247110E0,1.078362465E0,1.999408372E0
2.278631860E-1,1.804485321E0,-8.474190235E-1,1.658021927E0,2.592937135E0
2.329103210E-1,2.694809914E0,-5.681276321E-2,2.285668373E0,3.534049812E0
2.379574570E-1,2.939589024E0,-1.937167645E-1,3.035142899E0,4.229752029E0
2.430045920E-1,3.183160782E0,-3.488106728E-1,2.577944756E0,4.110958600E0
2.480517280E-1,3.348979950E0,-2.997943163E-1,2.600834846E0,4.250868763E0
2.530988630E-1,3.521410465E0,-2.246048450E-1,2.482050896E0,4.314088044E0
2.581459980E-1,3.693687916E0,8.662223816E-3,2.675380707E0,4.560818718E0
2.631931340E-1,3.511415720E0,3.353712559E-1,2.928968430E0,4.584906793E0
2.682400090E-1,3.247382164E0,6.937942505E-1,3.209980965E0,4.618529980E0
2.731881860E-1,2.886933088E0,9.874697924E-1,3.320200920E0,4.509236454E0
2.781364150E-1,2.498120785E0,1.239919543E0,3.422706604E0,4.415079662E0
2.830845920E-1,1.986289620E0,1.416859746E0,3.511383057E0,4.275821438E0
2.880327690E-1,1.475020170E0,1.529853225E0,3.537629128E0,4.126857792E0
2.929809980E-1,9.753969312E-1,1.542057037E0,3.538442612E0,3.981195197E0
2.979291760E-1,6.331290603E-1,1.711282969E0,3.490998268E0,3.939087548E0
3.028773530E-1,5.394216776E-1,1.885636210E0,3.589014053E0,4.089941508E0
3.078255300E-1,1.191417575E-1,1.576269031E0,3.650785446E0,3.978322912E0
3.127737070E-1,-4.292133451E-1,7.722812891E-1,3.712092400E0,3.815792509E0
3.177219360E-1,-8.082251549E-1,-2.934284210E-1,3.822171211E0,3.917693315E0
3.226701130E-1,-1.129940510E0,-1.386188030E0,3.831639290E0,4.228444449E0
3.276182900E-1,-1.550945282E0,-2.734131813E0,3.901817322E0,5.010497625E0
3.325664670E-1,-2.125854254E0,-4.089694023E0,4.102056503E0,6.170228607E0
3.375146960E-1,-2.758531094E0,-5.443059921E0,4.380433083E0,7.511630255E0
3.424628730E-1,-3.258635044E0,-6.506271362E0,4.412186623E0,8.509856649E0
3.474110510E-1,-3.614622593E0,-7.274674416E0,4.181717873E0,9.136364086E0
3.523592280E-1,-3.273481131E0,-6.480639935E0,3.825421333E0,8.206596192E0
3.573074570E-1,-2.395965815E0,-4.636146545E0,3.662742615E0,6.375750186E0
3.622556340E-1,-1.553219557E0,-3.590003490E0,3.279507637E0,5.104486888E0
3.672038110E-1,-1.204949856E0,-3.751226902E0,2.410851479E0,4.619070499E0
3.721519880E-1,-8.793812990E-1,-3.836506367E0,1.489211082E0,4.208306336E0
3.771001650E-1,-1.042695045E-1,-3.545022964E0,8.939447403E-1,3.657485085E0
3.820483940E-1,9.239265323E-1,-3.091780424E0,4.240694046E-1,3.254624600E0
3.869965710E-1,1.915235996E0,-2.651542664E0,-2.350702286E-1,3.279339176E0
3.919447480E-1,2.705499172E0,-2.192683935E0,-5.528373718E-1,3.526076824E0
3.968929780E-1,2.590888023E0,-2.166323900E0,-8.040094376E-1,3.471612185E0
4.018411550E-1,2.501960039E0,-2.117374182E0,-1.044977188E0,3.440211445E0
4.067893320E-1,2.607041836E0,-2.055460453E0,-1.213127136E0,3.534580917E0
4.117375090E-1,2.841342688E0,-2.094446659E0,-1.088239670E0,3.693805714E0
4.166856860E-1,2.991331816E0,-2.337640285E0,-7.390956879E-1,3.867672501E0
4.216339150E-1,2.847225666E0,-2.697172642E0,-3.323450089E-1,3.935973508E0
4.265820920E-1,2.420304537E0,-2.990902901E0,8.741855621E-2,3.848508311E0
4.315302690E-1,1.615616441E0,-3.212583780E0,1.192245483E-1,3.597933507E0
4.364784460E-1,6.652836800E-1,-3.326807499E0,1.325464249E-1,3.395264211E0
4.414266760E-1,-2.513217926E-1,-3.274473667E0,3.376178741E-1,3.301412769E0
4.463748530E-1,-1.078644276E0,-3.171712160E0,5.131158829E-1,3.389176804E0
4.513230300E-1,-1.689538240E0,-3.029736996E0,1.664972305E-1,3.472976685E0
4.562712070E-1,-2.031300545E0,-2.992322683E0,-4.577980042E-1,3.645511755E0
4.612194360E-1,-2.048064470E0,-2.937515736E0,-9.215183258E-1,3.697669914E0
4.661676130E-1,-1.990149498E0,-2.893084764E0,-1.286505699E0,3.739750178E0
4.711157900E-1,-1.953304529E0,-2.810485840E0,-1.676425457E0,3.811119462E0
4.760639670E-1,-1.896005630E0,-2.672935963E0,-2.183200836E0,3.937739187E0
4.810121440E-1,-1.766806841E0,-2.539544821E0,-2.687816620E0,4.098201129E0
4.859603730E-1,-1.588810444E0,-2.367112160E0,-3.234013081E0,4.311192319E0
4.909085510E-1,-1.384038448E0,-2.294715166E0,-3.976609707E0,4.795279437E0
4.958567280E-1,-1.149886847E0,-2.326087952E0,-4.428598881E0,5.132778289E0
5.008049570E-1,-8.176751137E-1,-2.449178934E0,-4.448526382E0,5.143584063E0
5.057531340E-1,-4.649641514E-1,-2.426164389E0,-4.327135563E0,4.982626565E0
5.107013110E-1,-1.523292065E-1,-2.306866407E0,-3.964268208E0,4.589145806E0
5.156494880E-1,8.111405373E-2,-2.138718367E0,-3.362346172E0,3.985732997E0
5.205976650E-1,3.506948948E-1,-1.921894789E0,-2.753254890E0,3.375956010E0
5.255458940E-1,6.082673073E-1,-1.696741343E0,-2.168015480E0,2.819434593E0
5.304940710E-1,8.440625668E-1,-1.511123896E0,-1.693922997E0,2.421840656E0
5.354422480E-1,1.017902613E0,-1.342672586E0,-1.380023479E0,2.177925666E0
5.403904260E-1,1.256532192E0,-1.121584415E0,-1.130290508E0,2.028393794E0
5.453386030E-1,1.397470236E0,-9.203486443E-1,-8.993558884E-1,1.899685685E0
5.502868320E-1,1.510707259E0,-6.856842041E-1,-6.284456253E-1,1.774075296E0
5.552350090E-1,1.568153977E0,-4.659171104E-1,-4.259366989E-1,1.690446013E0
5.601831860E-1,1.548381448E0,-2.420954704E-1,-3.475236893E-1,1.605262608E0
5.651314150E-1,1.457112312E0,-1.257176399E-1,-3.921165466E-1,1.514178524E0
5.700795920E-1,1.355578423E0,-6.560277939E-2,-5.402784348E-1,1.460752331E0
5.750277690E-1,1.273940086E0,-3.956270218E-2,-7.710742950E-1,1.489645636E0
5.799759460E-1,1.179172039E0,-9.892106056E-2,-1.042053223E0,1.576739355E0
5.849241230E-1,1.074872971E0,-3.560087681E-1,-1.332325935E0,1.748481211E0
5.898723530E-1,9.244201183E-1,-7.923710346E-1,-1.606557369E0,2.015795375E0
5.948205300E-1,8.804442883E-1,-1.227991343E0,-1.774682045E0,2.330802704E0
5.997687070E-1,9.151682854E-1,-1.624193430E0,-1.927350044E0,2.681457716E0
6.047168840E-1,9.939677715E-1,-1.997280002E0,-2.080741405E0,3.050669456E0
6.096650610E-1,1.128278732E0,-2.304719448E0,-2.221762180E0,3.394255709E0
6.146132900E-1,1.314556122E0,-2.503928185E0,-2.233254433E0,3.603489907E0
6.195614670E-1,1.410135269E0,-2.649263859E0,-2.282467365E0,3.770508950E0
6.245096440E-1,1.522302151E0,-2.574937820E0,-2.419737339E0,3.847445569E0
6.294578210E-1,1.459988594E0,-2.416112900E0,-2.659643650E0,3.878514224E0
6.344060510E-1,1.317014217E0,-2.235442638E0,-2.869268417E0,3.868388746E0
6.393542280E-1,1.168457508E0,-2.083031654E0,-3.152771950E0,3.955285677E0
6.443024050E-1,9.223594666E-1,-1.941329837E0,-3.388747692E0,4.012869228E0
6.492505820E-1,5.926017761E-1,-1.849864006E0,-3.552412987E0,4.048803741E0
6.541988110E-1,3.728346825E-1,-1.828359008E0,-3.792344093E0,4.226556055E0
6.591469880E-1,2.582049370E-1,-1.824458599E0,-4.092342854E0,4.488049576E0
6.640951650E-1,2.744646072E-1,-1.878844500E0,-4.284580708E0,4.686471947E0
6.690433420E-1,5.030288696E-1,-1.924800396E0,-4.496570110E0,4.917015087E0
6.739915190E-1,8.158302307E-1,-1.900599241E0,-4.544531345E0,4.993057339E0
6.789397480E-1,1.105351925E0,-1.621265888E0,-3.831392288E0,4.304633878E0
6.838879260E-1,8.253073692E-1,-1.655001163E0,-2.763364792E0,3.325108431E0
6.888361030E-1,2.442088127E-1,-1.998104095E0,-1.745378494E0,2.664283020E0
6.937842800E-1,-3.041405678E-1,-2.438630819E0,-1.080471039E0,2.684555722E0
6.987325090E-1,-1.158612728E0,-2.895145178E0,-7.599000931E-1,3.209625711E0
7.036806860E-1,-1.987215996E0,-3.198291779E0,-7.027087212E-1,3.830391267E0
7.086288630E-1,-2.788114548E0,-3.361717701E0,-7.955040932E-1,4.439319249E0
7.135770400E-1,-3.502323151E0,-3.404104233E0,-7.558069229E-1,4.942209747E0
7.185252170E-1,-3.276825905E0,-3.006753922E0,-6.632103920E-1,4.496443615E0
7.234734460E-1,-2.149682999E0,-2.230623484E0,-5.364127159E-1,3.143971489E0
7.284216230E-1,-1.235766411E0,-1.703256369E0,-6.291551590E-1,2.196369070E0
7.333698010E-1,-5.141787529E-1,-1.521994591E0,-7.790403366E-1,1.785427448E0
7.383179780E-1,-7.019519806E-3,-1.615590096E0,-8.911390305E-1,1.845077072E0
7.432662070E-1,4.629936218E-1,-1.787334681E0,-9.261150360E-1,2.065579196E0
7.482143840E-1,8.055133820E-1,-1.918306112E0,-8.567218781E-1,2.250049450E0
7.531625610E-1,1.231925964E0,-1.987843275E0,-7.491722107E-1,2.455691648E0
7.581107380E-1,1.863901854E0,-2.011101007E0,-6.099424362E-1,2.809036696E0
7.630589150E-1,2.696180105E0,-1.959612370E0,-5.526065826E-1,3.378585774E0
7.680071440E-1,3.454595566E0,-1.961411238E0,-6.306872368E-1,4.022329046E0
7.729553210E-1,4.143426895E0,-1.936476707E0,-8.286795616E-1,4.648078989E0
7.779034980E-1,4.448321342E0,-2.030694008E0,-6.730794907E-1,4.936022378E0
7.828516760E-1,4.479608536E0,-2.404757738E0,-9.598870277E-1,5.174083061E0
7.877999050E-1,4.318016052E0,-2.683888912E0,-1.186303139E0,5.220712352E0
7.927480820E-1,3.735843420E0,-2.829851627E0,-1.147038937E0,4.824964727E0
7.976962590E-1,3.129877329E0,-2.818262339E0,-8.954963684E-1,4.305885327E0
8.026444360E-1,2.803086042E0,-2.717023611E0,-8.216691017E-1,3.989316831E0
8.075926130E-1,2.821631908E0,-2.661723614E0,-7.989625931E-1,3.960393976E0
8.125408420E-1,2.825332880E0,-2.499938965E0,-8.254408836E-1,3.861807008E0
8.174890190E-1,2.794384956E0,-2.373695374E0,-1.058560848E0,3.816224323E0
8.224371960E-1,2.781117439E0,-2.225417376E0,-1.356690884E0,3.811522906E0
8.273853730E-1,2.956494808E0,-2.101325750E0,-1.605338097E0,3.966552894E0
8.323336030E-1,3.429462671E0,-2.064388037E0,-1.623034000E0,4.319392497E0
8.372817800E-1,3.929580688E0,-2.171938896E0,-1.458180428E0,4.720721673E0
8.422299570E-1,4.339853287E0,-2.462715149E0,-1.233076096E0,5.140016451E0
8.471781340E-1,4.725280762E0,-2.770984411E0,-9.591422081E-1,5.561167742E0
8.521263110E-1,5.014258385E0,-2.995651960E0,-6.150040627E-1,5.873239976E0
8.570745400E-1,5.268690109E0,-3.134524584E0,-2.843136787E-1,6.137195948E0
8.620227170E-1,5.552322388E0,-3.311204433E0,1.232862473E-1,6.465876445E0
8.669708940E-1,5.625791550E0,-3.520550251E0,5.421519279E-1,6.658658524E0
8.719190710E-1,5.386628151E0,-3.722475052E0,9.827237129E-1,6.621051974E0
8.768673010E-1,4.849781036E0,-3.860279083E0,1.400723457E0,6.354853020E0
8.818154780E-1,4.361131668E0,-3.887745619E0,1.649673939E0,6.070869750E0
8.867636550E-1,4.041229248E0,-3.789558649E0,1.774777889E0,5.817398486E0
8.917118320E-1,3.881624222E0,-3.634094238E0,1.735367060E0,5.593312647E0
8.966600090E-1,3.864357471E0,-3.428978443E0,1.657439470E0,5.425703404E0
9.016082380E-1,3.793259144E0,-3.198940754E0,1.428357124E0,5.163549259E0
9.065564150E-1,3.701871395E0,-2.948890686E0,1.141049385E0,4.868449630E0
9.115045920E-1,3.535837650E0,-2.693182468E0,9.389305115E-1,4.542793216E0
9.164527690E-1,3.339392185E0,-2.437405825E0,9.212346077E-1,4.235700712E0
9.214009460E-1,3.420305252E0,-2.185089111E0,1.077237606E0,4.199231275E0
9.263491760E-1,3.492124557E0,-1.914898157E0,9.171719551E-1,4.086927119E0
9.312973530E-1,3.473667622E0,-1.783606410E0,3.531496525E-1,3.920756719E0
9.362455300E-1,3.222064495E0,-1.805322409E0,6.240367889E-2,3.693884518E0
9.411937070E-1,2.812791824E0,-1.932263136E0,-2.336313725E-1,3.420529534E0
9.461418840E-1,2.292419910E0,-2.131248713E0,-4.214655161E-1,3.158329195E0
9.510901130E-1,1.709724903E0,-2.171218395E0,-5.398723483E-1,2.815814397E0
9.560382900E-1,1.203733921E0,-2.000452757E0,-5.430067182E-1,2.397007067E0
9.609864670E-1,7.294845581E-1,-1.713065624E0,-4.629688859E-1,1.918614537E0
9.659346440E-1,2.445077896E-1,-1.591233730E0,-2.019092441E-1,1.622521552E0
9.708828730E-1,-3.790407181E-1,-1.551593542E0,-1.095561385E-1,1.600973745E0
9.758310510E-1,-9.090518951E-1,-1.591661215E0,1.652045846E-1,1.840394883E0
9.807792280E-1,-1.298395157E0,-1.384318590E0,2.502951622E-1,1.914370813E0
9.857274050E-1,-1.714127541E0,-1.059799910E0,8.806794882E-2,2.017217152E0
9.906755820E-1,-2.181716919E0,-7.145609856E-1,-1.087094992E-1,2.298326320E0
9.956238110E-1,-2.685856819E0,-4.305751324E-1,-1.966299117E-1,2.727248635E0
1.000571988E0,-3.378150940E0,-4.830718040E-2,-6.712491512E-1,3.444533754E0
1.005520165E0,-3.987275124E0,3.372974396E-1,-1.131449223E0,4.158402315E0
1.010468342E0,-4.436734200E0,7.684886456E-1,-1.562623143E0,4.766232920E0
1.015416519E0,-4.721629143E0,1.153404236E0,-2.191101551E0,5.331514710E0
1.020364748E0,-4.851526260E0,1.541505098E0,-3.219798088E0,6.023341660E0
1.025312926E0,-4.771717072E0,1.939404964E0,-4.123361111E0,6.597930151E0
1.030261103E0,-4.523506165E0,2.259363413E0,-4.794310570E0,6.967944094E0
1.035209280E0,-4.321905136E0,2.492596149E0,-5.382100582E0,7.338862735E0
1.040157457E0,-4.268918991E0,2.639891624E0,-5.623403549E0,7.537596740E0
1.045105686E0,-4.454325676E0,2.721250057E0,-5.627054214E0,7.675282290E0
1.050053863E0,-4.807574272E0,2.748897076E0,-5.448863029E0,7.769125680E0
1.055002040E0,-5.316551208E0,2.731515646E0,-5.183935165E0,7.912021125E0
1.059950217E0,-5.897241592E0,2.657642365E0,-4.659446716E0,7.971885915E0
1.064898446E0,-6.470579147E0,2.446657181E0,-4.000732422E0,7.991269347E0
1.069846623E0,-7.217337608E0,2.218042850E0,-3.501827002E0,8.323008386E0
1.074794801E0,-7.977277756E0,1.872247934E0,-3.047172785E0,8.742284295E0
1.079742978E0,-8.628985405E0,1.529656172E0,-2.828585148E0,9.208698663E0
1.084691155E0,-9.113427162E0,1.219299316E0,-2.767755985E0,9.602172601E0
1.089639384E0,-9.452763557E0,9.559273720E-1,-2.762086391E0,9.894324497E0
1.094587561E0,-9.694718361E0,7.866349220E-1,-3.035653591E0,1.018928610E1
1.099535738E0,-9.779827118E0,6.652979851E-1,-3.413835287E0,1.037988012E1
1.104483915E0,-9.712751389E0,6.284847260E-1,-3.932071209E0,1.049731949E1
1.109432092E0,-9.543650627E0,6.363348961E-1,-4.461901665E0,1.055437141E1
1.114380321E0,-9.270401001E0,7.733736038E-1,-4.912085056E0,1.051983940E1
1.119328498E0,-8.874426842E0,1.007283688E0,-5.215015411E0,1.034245899E1
1.124276676E0,-8.356407166E0,1.288922071E0,-5.273895741E0,9.965181238E0
1.129224853E0,-7.696184158E0,1.496938229E0,-4.977546215E0,9.286982340E0
1.134173030E0,-7.056825638E0,1.457800627E0,-4.719852448E0,8.613998948E0
1.139121259E0,-6.457513809E0,1.398742914E0,-4.214848518E0,7.837149633E0
1.144069436E0,-5.822283745E0,1.289999008E0,-3.701884031E0,7.019047715E0
1.149017613E0,-5.705058098E0,1.038878918E0,-3.623242855E0,6.837751538E0
1.153965790E0,-5.832827568E0,8.249731064E-1,-3.454608917E0,6.829112741E0
1.158913967E0,-4.940718651E0,4.377627373E-1,-2.713940859E0,5.654008488E0
1.163862144E0,-3.721756935E0,5.443129539E-1,-1.941798210E0,4.233005028E0
1.168810373E0,-2.872641563E0,9.073123932E-1,-1.195929527E0,3.241223961E0
1.173758551E0,-2.006381035E0,1.052056551E0,-1.264050961E0,2.594265344E0
1.178706728E0,-1.353341103E0,1.150817156E0,-1.061918259E0,2.069681776E0
1.183654905E0,-4.998979568E-1,1.288453579E0,-3.475685120E-1,1.425066477E0
1.188603082E0,4.067230225E-1,1.457695723E0,3.649787903E-1,1.556762652E0
1.193551311E0,1.024998665E0,1.547796965E0,8.407453299E-1,2.037927971E0
1.198499488E0,1.286991596E0,1.578488111E0,1.263011336E0,2.396491127E0
1.203447665E0,1.394529819E0,1.600021839E0,1.619839191E0,2.669955488E0
1.208395842E0,1.531442642E0,1.632127285E0,2.055979729E0,3.039113141E0
1.213344019E0,1.842844486E0,1.491452456E0,2.491430283E0,3.439146854E0
1.218292248E0,2.083647728E0,1.178308249E0,2.964127541E0,3.809993472E0
1.223240426E0,1.879587650E0,6.241319180E-1,3.760684967E0,4.250310790E0
1.228188603E0,-5.759630203E-1,-3.925249577E-1,3.883513689E0,3.945565589E0
1.233136780E0,-9.452457428E-1,-2.663469315E-1,3.043488741E0,3.198007805E0
1.238084957E0,8.722915649E-1,6.807661057E-1,2.514716387E0,2.747386680E0
1.243033186E0,1.717404366E0,1.618507624E0,1.162930965E0,2.630865468E0
1.247981363E0,2.402161121E0,2.265739918E0,-3.870161772E-1,3.324716070E0
1.252929540E0,4.496201515E0,2.939252853E0,-2.803498507E0,6.059260621E0
1.257877717E0,6.353821278E0,3.152522802E0,-5.653305531E0,9.070243010E0
1.262825894E0,7.815002441E0,3.215639353E0,-7.715285301E0,1.144291164E1
1.267774071E0,8.533357620E0,3.131839991E0,-8.391845703E0,1.237132524E1
1.272722301E0,8.388848305E0,3.211060524E0,-7.917148113E0,1.197350909E1
1.277670478E0,8.121202469E0,3.250865936E0,-6.755247593E0,1.105239471E1
1.282618655E0,7.756275177E0,3.126048326E0,-5.231040001E0,9.863861427E0
1.287566832E0,7.048407555E0,2.921843529E0,-3.954288960E0,8.593812881E0
1.292515061E0,6.448370457E0,2.691093922E0,-2.827738523E0,7.537875908E0
1.297463238E0,6.270467281E0,2.478362560E0,-1.758115053E0,6.967927199E0
1.302411415E0,6.636735916E0,2.275351524E0,-8.521826267E-1,7.067510411E0
1.307359592E0,7.479384899E0,2.174857855E0,-4.069671631E-1,7.799796627E0
1.312307769E0,7.593198776E0,2.018422604E0,-1.828043461E-1,7.859014880E0
1.317255946E0,5.892055511E0,1.656511903E0,-2.266422510E-1,6.124680934E0
1.322204176E0,3.326514721E0,1.121666193E0,-3.712760210E-1,3.530110639E0
1.327152353E0,8.583288193E-1,2.325532436E-1,-9.343482256E-1,1.289889910E0
1.332100530E0,-1.180957794E0,-9.175777435E-1,-1.409038901E0,2.054750801E0
1.337048707E0,-2.680709839E0,-1.813800335E0,-1.438491940E0,3.541939576E0
1.341996936E0,-3.951931000E0,-2.369135380E0,-1.175767303E0,4.755311748E0
1.346945113E0,-5.061456680E0,-2.415393114E0,-6.091053486E-1,5.641230092E0
1.351893290E0,-5.211429596E0,-2.002915382E0,2.290006876E-1,5.587764292E0
1.356841467E0,-4.388979912E0,-1.274935722E0,1.004892230E0,4.679574143E0
1.361789644E0,-3.210047722E0,-4.712278843E-1,1.483793497E0,3.567647017E0
1.366737873E0,-2.292082787E0,2.029139996E-1,1.545289874E0,2.771775313E0
1.371686051E0,-1.857111931E0,5.001509190E-1,1.021293402E0,2.177626203E0
1.376634228E0,-1.770617485E0,3.209257126E-1,1.061064601E-1,1.802592070E0
1.381582405E0,-2.576433182E0,1.841187477E-2,-9.019026160E-1,2.729793997E0
1.386530634E0,-4.747998238E0,-2.538392544E-1,-1.721673965E0,5.056884701E0
1.391478811E0,-6.041541100E0,-6.272926331E-1,-1.808533430E0,6.337547481E0
1.396426988E0,-6.654810905E0,-1.064941883E0,-1.584561110E0,6.923253810E0
1.401375165E0,-6.745440483E0,-1.345642805E0,-1.458339214E0,7.031249898E0
1.406323342E0,-6.289075851E0,-1.478346825E0,-1.367078781E0,6.603551226E0
1.411271519E0,-5.565244675E0,-1.243275166E0,-3.826541305E-1,5.715252016E0
1.416219748E0,-5.433956146E0,-1.025091887E0,-8.840614557E-2,5.530507067E0
1.421167926E0,-6.681252480E0,-8.245799541E-1,1.294241190E0,6.855226258E0
1.426116103E0,-7.518537521E0,-7.523186207E-1,4.363008022E0,8.725263822E0
1.431064280E0,-5.456499100E0,-9.056506157E-1,6.318801403E0,8.397668524E0
1.436012457E0,-3.877762794E0,-9.291336536E-1,7.411651134E0,8.416228738E0
1.440960634E0,-2.343047142E0,-1.099804401E0,7.239816666E0,7.688587971E0
1.445908863E0,-1.761936188E0,-1.478077650E0,6.556807995E0,6.948443261E0
1.450857040E0,-8.046588898E-1,-1.507891655E0,5.970335007E0,6.210162096E0
1.455805217E0,4.850425720E-1,-1.390148401E0,4.662779808E0,4.889713122E0
1.460753394E0,2.182332993E0,-1.135222673E0,2.938306808E0,3.832095342E0
1.465701571E0,4.178125858E0,-5.339128971E-1,1.365324020E0,4.427855954E0
1.470649801E0,6.382146358E0,2.446181774E-1,3.821919560E-1,6.398257644E0
1.475597978E0,8.432835579E0,1.123435974E0,1.284555793E-1,8.508309181E0
1.480546155E0,1.022254467E1,1.943754435E0,1.367359459E-1,1.040659875E1
1.485494332E0,1.169003963E1,2.533682108E0,2.686250806E-1,1.196447789E1
1.490442509E0,1.293412209E1,2.951344252E0,6.539171934E-2,1.326673370E1
1.495390738E0,1.421323967E1,3.170269251E0,-5.524993539E-1,1.457299024E1
1.500338915E0,1.539146614E1,3.419305325E0,-1.415523648E0,1.583011643E1
1.505287092E0,1.604989624E1,3.495165348E0,-2.942003727E0,1.668744247E1
1.510235269E0,1.527675629E1,3.431536913E0,-4.872033596E0,1.639790961E1
1.515183446E0,1.359078789E1,3.549641848E0,-6.338318825E0,1.541050804E1
1.520131676E0,1.190751457E1,3.870480776E0,-7.495760441E0,1.459301029E1
1.525079853E0,1.044205284E1,3.363164902E0,-8.756257057E0,1.403635933E1
1.530028030E0,9.821081161E0,2.367414951E0,-9.973342896E0,1.419598032E1
1.534976207E0,9.572525024E0,1.202628851E0,-1.070307541E1,1.440955845E1
1.539924384E0,1.010628128E1,4.182910919E-2,-1.060912132E1,1.465237613E1
1.544872561E0,1.015021896E1,-1.205779076E0,-9.515684128E0,1.396528169E1
1.549820790E0,9.016934395E0,-2.469742775E0,-7.590218067E0,1.204226497E1
1.554768967E0,5.859649658E0,-3.689316750E0,-5.518845558E0,8.854615096E0
1.559717144E0,3.371203899E0,-4.575751305E0,-3.966194630E0,6.930599943E0
1.564665321E0,2.074645996E0,-4.973259449E0,-1.685202122E0,5.646004937E0
1.569613498E0,1.536715031E0,-5.503190041E0,-6.356694698E-1,5.748971159E0
1.574561728E0,1.328230858E0,-5.720041752E0,-1.738985181E-1,5.874803448E0
1.579509905E0,3.190097809E-1,-5.675926208E0,-4.551867843E-1,5.703078166E0
1.584458082E0,-1.048895359E0,-5.214652538E0,-2.248041034E-1,5.323844424E0
1.589406259E0,-2.470382214E0,-4.278484821E0,1.739809990E0,5.237858288E0
1.594354436E0,-7.757801533E0,-4.049661160E0,4.699878216E0,9.933382877E0
1.599302613E0,-1.305495834E1,-4.116075993E0,7.736599445E0,1.572351710E1
1.604250790E0,-1.851593590E1,-2.991643429E0,1.036396885E1,2.142899118E1
1.609199019E0,-2.170913124E1,-1.934840202E0,1.217079639E1,2.496313824E1
1.614147196E0,-2.051873779E1,-1.819126606E0,1.266977787E1,2.418369479E1
1.619095373E0,-1.545675659E1,-2.442009926E0,1.179900169E1,1.959824425E1
1.624043551E0,-8.352331161E0,-3.136646271E0,9.438499451E0,1.298788888E1
1.628991728E0,-2.806917191E0,-3.555593967E0,5.703428745E0,7.283552157E0
1.633939905E0,-6.487741470E-1,-3.341718674E0,1.077157140E0,3.570470430E0
1.638888134E0,-5.175623894E-1,-1.938721180E0,-3.750968456E0,4.253971674E0
1.643836311E0,-8.613843918E-1,5.355243683E-1,-7.474798679E0,7.543300651E0
1.648784488E0,-1.456231117E0,2.554665565E0,-9.452818871E0,9.899631802E0
1.653732665E0,-1.401035309E0,3.846792221E0,-9.409147263E0,1.026122617E1
1.658680842E0,-1.293591499E0,4.475705147E0,-7.755387783E0,9.047173879E0
1.663629071E0,-1.516982079E0,4.618996620E0,-5.590459824E0,7.408751949E0
1.668577248E0,-1.820904732E0,4.503018856E0,-3.003136635E0,5.710665680E0
1.673525426E0,-2.103941917E0,4.172117710E0,-5.661844015E-1,4.706771989E0
1.678473603E0,-2.286057949E0,3.842370510E0,1.329299927E0,4.664430338E0
1.683421780E0,-2.340455532E0,3.271836281E0,1.987366796E0,4.486899991E0
1.688370009E0,-2.029711246E0,2.493623257E0,1.786698580E0,3.678338824E0
1.693318186E0,-1.398994446E0,1.426802158E0,1.266851544E0,2.365980282E0
1.698266363E0,-4.384851456E-1,4.442682266E-1,4.360970855E-1,7.614618494E-1
1.703214540E0,4.385595322E-1,1.828951836E-1,5.907070637E-2,4.788261269E-1
1.708162717E0,9.272670746E-1,3.755731583E-1,-5.415987968E-2,1.001904545E0
1.713110894E0,1.257117748E0,6.261873245E-1,2.017509937E-1,1.418858366E0
1.718059123E0,8.383202553E-1,7.758102417E-1,4.176700711E-1,1.216186939E0
1.723007301E0,-2.429962158E-3,7.876229286E-1,3.276058435E-1,8.530424205E-1
1.727955478E0,-8.497157097E-1,5.799455643E-1,-2.854332924E-1,1.067626250E0
1.732903655E0,-1.056816578E0,2.990050316E-1,-5.035250187E-1,1.208222965E0
1.737851832E0,-1.559384823E0,-1.599302292E-1,-4.839123487E-1,1.640557791E0
1.742800009E0,-2.392495155E0,-6.026992798E-1,-8.151822090E-1,2.598422892E0
1.747748238E0,-2.241963863E0,1.253175735E-1,1.807190537E0,2.882367794E0
1.752696415E0,-1.635952473E0,1.197555542E0,9.895162582E-1,2.256019103E0
1.757644592E0,-1.288084984E0,2.129229069E0,9.748570919E-1,2.672662662E0
1.762592769E0,-7.309918404E-1,2.409740448E0,5.551663041E-1,2.578644551E0
1.767540946E0,-3.146901131E-1,2.728113651E0,1.374153018E0,3.070819187E0
1.772489123E0,-4.656887054E-2,3.040637493E0,2.452292919E0,3.906582341E0
1.777437353E0,4.295201302E-1,3.388199329E0,3.002175331E0,4.547245205E0
1.782385530E0,8.517012596E-1,2.304276466E0,5.138774872E0,5.695796016E0
1.787333707E0,1.957350492E0,2.534288883E0,4.888949394E0,5.844285010E0
1.792281884E0,2.319396257E0,3.843581676E0,3.389952183E0,5.625343981E0
1.797230061E0,3.556226254E0,4.127832413E0,3.299512386E0,6.369656787E0
1.802178238E0,4.730731964E0,3.952901840E0,3.791853428E0,7.237638447E0
1.807126467E0,5.500761509E0,3.634745121E0,3.580858707E0,7.502819360E0
1.812074644E0,5.331419468E0,3.406864643E0,2.098971367E0,6.666066384E0
1.817022821E0,4.595238209E0,3.363152981E0,1.119170547E0,5.803408902E0
1.821970998E0,3.745722055E0,3.003446102E0,1.902125478E-1,4.804924871E0
1.826919176E0,3.261011600E0,2.710216045E0,-9.315515757E-1,4.341342651E0
1.831867353E0,2.734660864E0,2.370457172E0,-1.273784757E0,3.836660638E0
1.836815582E0,2.128770351E0,2.211496353E0,-1.481483817E0,3.408397516E0
1.841763759E0,1.690493584E0,2.664705753E0,-1.112139106E0,3.345934653E0
1.846711936E0,1.253113747E0,2.990292072E0,-5.191031098E-1,3.283536018E0
1.851660113E0,8.743619919E-1,3.028625011E0,-3.542193174E-1,3.172152215E0
1.856608290E0,9.952869415E-1,2.065448761E0,-8.210194111E-1,2.435312619E0
1.861556467E0,1.491249323E0,1.157881260E0,-1.777291656E0,2.592928689E0
1.866504696E0,1.843837857E0,-7.655181885E-1,-3.178336859E0,3.753342687E0
1.871452873E0,1.846292973E0,-4.681054115E0,-3.168350458E0,5.946386297E0
1.876401051E0,8.858625889E-1,-8.817127228E0,2.167776227E-1,8.864168185E0
1.881349228E0,-4.215002060E-2,-1.118568897E1,2.989020348E-1,1.118976125E1
1.886297405E0,-1.339711905E0,-1.156404495E1,-1.522345901E0,1.174050683E1
1.891245582E0,-2.584594488E0,-1.276956272E1,-2.540227890E0,1.327383210E1
1.896193811E0,-3.333425760E0,-1.422124672E1,-2.960446835E0,1.490368515E1
1.901141988E0,-3.328502655E0,-1.560420322E1,-2.673248053E0,1.617764950E1
1.906090165E0,-2.966876745E0,-1.656554413E1,-1.418233752E0,1.688878317E1
1.911038342E0,-2.522732973E0,-1.691285515E1,6.778908372E-1,1.711339788E1
1.915986519E0,-1.641540527E0,-1.624162102E1,3.083650827E0,1.661306146E1
1.920934696E0,1.194211245E0,-1.263110256E1,4.669931412E0,1.351958401E1
1.925882926E0,3.509191275E0,-7.636150360E0,4.015915394E0,9.314117896E0
1.930831103E0,4.054395676E0,-3.666166306E0,2.382522583E0,5.962827646E0
1.935779280E0,3.422446251E0,-1.267195702E0,8.871462941E-1,3.755789109E0
1.940727457E0,2.268023729E0,9.499454498E-2,-1.106058359E-1,2.272705272E0
1.945675634E0,8.599781990E-1,1.010502815E0,-6.741005182E-1,1.488317826E0
1.950623811E0,-2.425775528E-1,1.709829807E0,-1.055073857E0,2.023744718E0
1.955572040E0,-8.977239132E-1,2.382416725E0,-1.379689217E0,2.895748610E0
1.960520217E0,-1.107501745E0,2.933197975E0,-1.497744799E0,3.474687030E0
1.965468394E0,-1.085991383E0,3.236083508E0,-1.591173887E0,3.766091886E0
1.970416571E0,-1.098737240E0,3.247092247E0,-1.466761470E0,3.728568196E0
1.975364748E0,-8.040444851E-1,6.091299057E0,-1.503222466E0,6.325352916E0
1.980312926E0,3.854454041E0,1.909356308E1,-2.676702499E0,1.966178281E1
1.985261155E0,1.316515088E0,1.588942814E1,-2.756207466E0,1.618035284E1
1.990209332E0,-3.267505407E0,3.026885986E0,-1.733150244E0,4.779376542E0
1.995157509E0,-3.658885241E0,-1.845201492E0,-8.459658623E-1,4.184240432E0
2.000105686E0,-1.026407003E0,1.086902618E0,-1.104832888E-1,1.499024748E0
2.005053863E0,1.206402063E0,5.450522423E0,6.585602164E-1,5.621147763E0
2.010002040E0,1.006331205E0,5.417249680E0,1.871839285E0,5.819199163E0
2.014950217E0,4.774008989E-1,3.656652927E0,2.674070835E0,4.555181344E0
2.019898394E0,3.035724163E-1,3.182200432E0,2.685277939E0,4.174838130E0
2.024846623E0,-3.229498863E-1,2.668987274E0,2.050841808E0,3.381381644E0
2.029794801E0,-1.067892313E0,2.456308365E0,6.755487323E-1,2.762283632E0
2.034742978E0,-1.842446327E-1,5.118486881E0,-7.818523049E-1,5.181133763E0
2.039691155E0,-2.660281658E-1,6.637276649E0,-1.348134875E0,6.778029208E0
2.044639332E0,7.397936583E-1,8.810239792E0,-7.938343287E-1,8.876812085E0
2.049587509E0,1.130927444E0,1.045417500E1,-6.395837069E-1,1.053460199E1
2.054535738E0,8.307636976E-1,1.120296955E1,-2.828142047E-1,1.123728966E1
2.059483915E0,1.185302734E-1,1.621733475E1,-7.796433568E-1,1.623649714E1
2.064432092E0,3.056756735E0,2.380596924E1,7.347349167E0,2.510082614E1
2.069380269E0,2.796378136E0,2.255205345E1,7.804783821E0,2.402768187E1
2.074328446E0,1.700205207E0,1.746759415E1,9.411981583E0,1.991464136E1
2.079276676E0,-3.141417503E-1,1.165934181E1,9.975419998E0,1.534757117E1
2.084224853E0,-1.189146042E0,4.970797539E0,6.908740044E0,8.593810882E0
2.089173030E0,-4.372489452E-1,-4.347209930E-1,6.083444595E0,6.114610955E0
2.094121207E0,8.479089737E-1,-4.312557220E0,2.638808012E0,5.126441956E0
2.099069384E0,2.429658413E0,-5.529282570E0,-1.456759572E-1,6.041310059E0
2.104017561E0,-5.157668591E-1,-7.247056961E0,-1.701050758E0,7.461864628E0
2.108965790E0,-2.193450928E0,-1.005303383E1,-3.566122651E-1,1.029572185E1
2.113913967E0,-1.271677017E-1,-1.559032154E1,-2.849841118E-2,1.559086622E1
2.118862144E0,8.133192062E-1,-2.798967934E1,-5.080514431E0,2.845865886E1
2.123810321E0,-3.518724442E-1,-3.200118256E1,-1.500406075E1,3.534574003E1
2.128758498E0,-6.755251884E-1,-1.703662872E1,-2.172075272E1,2.761329664E1
2.133706676E0,-3.344754219E0,-7.107085228E0,-2.113036537E1,2.254307836E1
2.138654853E0,-9.660454750E0,-1.177367020E1,-1.522965908E1,2.153801782E1
2.143603082E0,-1.422368050E1,-1.306772614E1,-7.521611691E0,2.072807747E1
2.148551259E0,-1.445075989E1,-8.845835686E0,-3.339118958E-1,1.694652671E1
2.153499436E0,-1.196119118E1,-6.493665695E0,5.498163223E0,1.467881424E1
2.158447613E0,-8.813711166E0,-6.393621445E0,9.356781960E0,1.435650613E1
2.163395790E0,-5.508687973E0,-6.709303856E0,1.099687290E1,1.401041095E1
2.168343967E0,-1.768923283E0,-6.261898994E0,9.843454361E0,1.179974840E1
2.173292144E0,1.494651675E0,-5.902099609E0,7.804370403E0,9.898331214E0
2.178240373E0,4.054605484E0,-5.348792076E0,5.315025806E0,8.561477771E0
2.183188551E0,4.906506538E0,-5.003763199E0,2.671456814E0,7.499875604E0
2.188136728E0,4.684988976E0,-4.583579063E0,4.885251522E-1,6.572440609E0
2.193084905E0,3.917723656E0,-3.995298386E0,-9.380034804E-1,5.673695300E0
2.198033082E0,2.914550304E0,-3.533895493E0,-1.850181818E0,4.940262502E0
2.202981311E0,1.812125921E0,-2.901625633E0,-2.306023121E0,4.125648350E0
2.207929488E0,6.433731318E-1,-2.340610504E0,-2.381725311E0,3.400735505E0
2.212877665E0,-2.232573032E-1,-1.644077301E0,-2.182269812E0,2.741374751E0
2.217825842E0,-6.729090214E-1,-8.669652939E-1,-2.157305956E0,2.420414088E0
2.222774019E0,-5.907847881E-1,-2.007532120E-1,-2.448790312E0,2.527034331E0
2.227722196E0,-3.848450184E-1,3.814821243E-1,-2.967052460E0,3.016129075E0
2.232670373E0,1.315684319E-1,9.022836685E-1,-3.616007805E0,3.729200788E0
2.237618603E0,8.937088251E-1,1.534308910E0,-4.315877438E0,4.666863760E0
2.242566780E0,1.637766361E0,2.118466377E0,-4.603535652E0,5.325666057E0
2.247514957E0,2.250248671E0,2.430412292E0,-4.177417755E0,5.331167048E0
2.252463134E0,2.684178591E0,2.438026905E0,-3.432761669E0,4.993259714E0
2.257411311E0,2.912222385E0,2.096554756E0,-2.564244747E0,4.410434467E0
2.262359488E0,2.849000931E0,1.605090141E0,-1.350365877E0,3.537881947E0
2.267307665E0,2.545780659E0,1.120170593E0,-1.425016522E-1,2.784975411E0
2.272255894E0,2.492866278E0,5.184402466E-1,1.077611923E0,2.764852623E0
2.277204071E0,2.388284922E0,-4.819812775E-1,2.455712318E0,3.459296722E0
2.282152248E0,1.633914709E0,-1.276668549E0,4.107539654E0,4.601243513E0
2.287100426E0,7.243793011E-1,-1.560853958E0,4.136309624E0,4.479960687E0
2.292048603E0,3.546380997E-2,-1.916394234E0,2.830008030E0,3.418006728E0
2.296996832E0,-9.004402161E-2,-1.788830757E0,1.420771122E0,2.286178905E0
2.301945009E0,-3.039307594E-1,-1.461468697E0,-1.360003650E-1,1.498919863E0
2.306893186E0,-6.477613449E-1,-1.472542763E0,-2.153880119E0,2.688340848E0
2.311841363E0,-7.367460728E-1,-1.259922981E0,-3.828891993E0,4.097635243E0
2.316789540E0,-5.258748531E-1,-7.046785355E-1,-4.980766296E0,5.057781045E0
2.321737717E0,-1.436417103E-1,1.354036331E-1,-5.443149090E0,5.446727375E0
2.326685894E0,2.781184912E-1,9.039726257E-1,-5.338593483E0,5.421724521E0
2.331634123E0,5.317177773E-1,1.214334488E0,-4.993392944E0,5.166362854E0
2.336582301E0,6.561721563E-1,1.287887573E0,-4.067862034E0,4.317026503E0
2.341530478E0,8.421859741E-1,1.283240318E0,-3.792446136E0,4.091287160E0
2.346478655E0,6.102378368E-1,1.285733223E0,-2.618356705E0,2.980149656E0
2.351426832E0,7.479269505E-1,1.108578682E0,4.783486724E-1,1.420267182E0
2.356375009E0,7.972193956E-1,9.767961502E-1,1.784734845E0,2.185170005E0
2.361323186E0,7.692409754E-1,8.832559586E-1,1.626658916E0,2.004468008E0
2.366271363E0,5.277732611E-1,8.494319916E-1,8.915856481E-1,1.339777702E0
2.371219592E0,1.190485954E-1,9.420471191E-1,1.368033886E-2,9.496380860E-1
2.376167769E0,-2.775255442E-1,1.199198723E0,-7.595597506E-1,1.446384810E0
2.381115946E0,-2.494024038E-1,1.193143845E0,-1.358315229E0,1.825051795E0
2.386064123E0,-4.361641407E-2,9.675846100E-1,-1.949171901E0,2.176555413E0
2.391012301E0,3.065109253E-3,1.206151009E0,-1.920911074E0,2.268195098E0
2.395960478E0,3.903245926E-2,1.391766548E0,-1.545540094E0,2.080199952E0
2.400908707E0,3.381277323E-1,1.505479336E0,-8.821890950E-1,1.777373341E0
2.405856884E0,5.886768103E-1,1.227415085E0,-5.977820158E-1,1.486752002E0
2.410805061E0,7.098256350E-1,8.855428696E-1,-5.391957164E-1,1.256491395E0
2.415753238E0,5.407145023E-1,6.946306229E-1,-4.127771854E-1,9.722493919E-1
2.420701415E0,1.474007368E-1,7.258338928E-1,-4.073907733E-1,8.452982073E-1
2.425649592E0,-2.503123283E-1,9.807348251E-1,-5.583634377E-1,1.155970063E0
2.430597769E0,-7.214503288E-1,1.358673096E0,-1.036184311E0,1.854767124E0
2.435545946E0,-5.650810003E-1,1.085859299E0,-1.927171946E0,2.283067818E0
2.440494176E0,-3.869806528E-1,1.035498619E0,-2.230738640E0,2.489619709E0
2.445442353E0,-6.522080898E-1,1.085222244E0,-1.813736320E0,2.211949852E0
2.450390530E0,-7.984899282E-1,1.015037537E0,-1.686065555E0,2.123841901E0
2.455338707E0,-5.281111002E-1,8.066396713E-1,-9.318941832E-1,1.340893606E0
2.460286884E0,-4.798516035E-1,-5.099582672E-2,-8.758707047E-1,1.000003813E0
2.465235061E0,-1.009772420E0,-6.797771454E-1,-1.039480448E0,1.600705129E0
2.470183238E0,-1.653079748E0,-1.020834923E0,-1.032543182E0,2.200209539E0
2.475131415E0,-2.120893478E0,-1.170592308E0,-7.810575962E-1,2.545294967E0
2.480079644E0,-2.259900093E0,-1.198734283E0,-5.717742443E-1,2.621266507E0
2.485027821E0,-2.102042437E0,-1.098240852E0,-5.024627447E-1,2.424290450E0
2.489975998E0,-1.729748726E0,-1.081802368E0,-7.277783155E-1,2.166099789E0
2.494924176E0,-1.281058431E0,-1.354518890E0,-1.089720964E0,2.159473062E0
2.499872353E0,-7.691863775E-1,-1.345015526E0,-1.421019316E0,2.102382064E0
2.504820530E0,-9.842019081E-1,-1.101568222E0,-2.052996159E0,2.529209199E0
2.509768759E0,-6.811943054E-1,-1.087611198E0,-2.892345428E0,3.164267036E0
2.514716936E0,7.535824180E-1,-1.550579071E0,-3.346544266E0,3.764510651E0
2.519665113E0,1.339905262E0,-2.059379578E0,-3.778950214E0,4.507422221E0
2.524613290E0,8.765302300E-1,-2.232076645E0,-4.300407410E0,4.923817145E0
2.529561467E0,1.851023436E-1,-2.425489426E0,-4.584928513E0,5.190263124E0
2.534509644E0,-2.016729116E-1,-2.243179321E0,-4.596275330E0,5.118424791E0
2.539457821E0,-1.475074291E-1,-1.623585701E0,-4.292480469E0,4.591642140E0
2.544405998E0,-2.476102114E-1,-1.136296272E0,-4.142368317E0,4.302521970E0
2.549354228E0,-8.521660566E-1,-9.053173065E-1,-4.011487484E0,4.199740260E0
2.554302405E0,-1.632422090E0,-9.753189087E-1,-3.924992085E0,4.361377273E0
2.559250582E0,-2.395737648E0,-1.333896637E0,-3.867395401E0,4.740842362E0
2.564198759E0,-3.067888260E0,-1.722525597E0,-3.263050318E0,4.798596689E0
2.569146936E0,-4.145673275E0,-1.998666763E0,-2.743230343E0,5.357852970E0
2.574095113E0,-5.098085403E0,-1.834876060E0,-2.244568825E0,5.864753545E0
2.579043290E0,-5.684112549E0,-2.075407028E0,-2.235063791E0,6.450733288E0
2.583991519E0,-6.063732147E0,-2.673810005E0,-2.379090309E0,7.041177330E0
2.588939696E0,-6.013051033E0,-2.854641914E0,-2.315036297E0,7.047351009E0
2.593887873E0,-5.750568390E0,-2.883622169E0,-2.317008018E0,6.837604828E0
2.598836051E0,-5.463290215E0,-3.087941170E0,-2.282827854E0,6.677890659E0
2.603784228E0,-4.881930351E0,-3.264436722E0,-1.987893820E0,6.200122007E0
2.608732405E0,-4.211190224E0,-3.222336769E0,-1.564424157E0,5.528562227E0
2.613680582E0,-3.455820799E0,-3.055603027E0,-1.231263757E0,4.774454701E0
2.618628759E0,-2.707073212E0,-2.982027054E0,-1.129728913E0,4.182943717E0
2.623576936E0,-1.954202652E0,-2.982084274E0,-1.383423567E0,3.824342478E0
2.628525165E0,-1.226665974E0,-3.036476135E0,-1.807934642E0,3.740791948E0
2.633473342E0,-2.936996222E-1,-2.649561882E0,-1.837690473E0,3.237830123E0
2.638421519E0,3.541771173E-1,-2.701786995E0,-2.502576113E0,3.699727233E0
2.643369696E0,2.821202278E-1,-2.743400574E0,-2.723249197E0,3.875812782E0
2.648317873E0,1.721444130E-1,-2.726568222E0,-2.872911453E0,3.964521180E0
2.653266051E0,5.741792917E-1,-3.327565193E0,-2.536780834E0,4.223461729E0
2.658214280E0,1.035464525E0,-3.931118011E0,-2.085877419E0,4.569109345E0
2.663162457E0,1.176694989E0,-4.219642639E0,-1.809505224E0,4.739652335E0
2.668110634E0,1.232489824E0,-3.942653656E0,-1.431160331E0,4.371700917E0
2.673058811E0,1.310770750E0,-3.232771873E0,-1.113158941E0,3.661701350E0
2.678006988E0,1.316200376E0,-2.528288841E0,-9.625811577E-1,3.008519632E0
2.682955165E0,1.296379209E0,-1.848413467E0,-9.381784201E-1,2.444874260E0
2.687903342E0,1.330332756E0,-1.174306870E0,-9.469441175E-1,2.011339113E0
2.692851519E0,1.324147701E0,-6.781587601E-1,-9.458550811E-1,1.762926054E0
2.697799748E0,1.249488235E0,-2.764501572E-1,-8.978838921E-1,1.563278933E0
2.702747926E0,1.108185053E0,5.233192444E-2,-7.749590278E-1,1.353282763E0
2.707696103E0,8.958861232E-1,2.815914154E-1,-6.196783781E-1,1.125125310E0
2.712644280E0,6.486513615E-1,5.116348267E-1,-4.426480234E-1,9.372598664E-1
2.717592457E0,5.122603178E-1,9.716844559E-1,9.894293547E-2,1.102892116E0
2.722540634E0,2.417334318E-1,9.225912094E-1,1.939189136E-1,9.732492676E-1
2.727488811E0,-2.431571484E-2,7.284965515E-1,3.396525681E-1,8.041531860E-1
2.732436988E0,-3.191268444E-2,4.253606796E-1,5.403549671E-1,6.884283679E-1
2.737385217E0,9.606564045E-2,4.691600800E-2,6.976415515E-1,7.057856994E-1
2.742333394E0,3.073724508E-1,-3.518295288E-1,7.926861644E-1,9.201158601E-1
2.747281571E0,5.633220077E-1,-7.349643707E-1,8.550116420E-1,1.260376618E0
2.752229748E0,9.195760489E-1,-1.045342445E0,8.540627360E-1,1.633335267E0
2.757177926E0,1.278068066E0,-1.326199532E0,7.903170586E-1,2.004211623E0
2.762126103E0,1.596511483E0,-1.601652145E0,7.399322987E-1,2.379419744E0
2.767074280E0,1.877896309E0,-1.852735519E0,8.463710546E-1,2.770463393E0
2.772022457E0,2.064853191E0,-2.057865143E0,1.007182002E0,3.084289745E0
2.776970686E0,2.243747234E0,-2.173995972E0,1.321539402E0,3.392215578E0
2.781918863E0,2.454491138E0,-2.143680573E0,1.738420963E0,3.693507898E0
2.786867040E0,2.577444553E0,-2.064956665E0,2.290362358E0,4.019082754E0
2.791815217E0,2.580574512E0,-1.946998596E0,2.975889921E0,4.393869499E0
2.796763394E0,2.560796976E0,-1.861063957E0,3.657652378E0,4.837319622E0
2.801711571E0,2.468894958E0,-1.830521584E0,4.158434391E0,5.170960082E0
2.806659748E0,2.130782366E0,-1.747787476E0,4.388905525E0,5.182420888E0
2.811607926E0,1.772338033E0,-1.321167946E0,4.304876328E0,4.839279599E0
2.816556155E0,1.545655489E0,-1.172527313E0,4.351910114E0,4.764765769E0
2.821504332E0,1.203911781E0,-1.263091087E0,4.305476189E0,4.645635358E0
2.826452509E0,6.289010644E-1,-1.552018166E0,4.190044403E0,4.512288669E0
2.831400686E0,-2.546858788E-2,-1.871832848E0,3.975145817E0,4.393881100E0
2.836348863E0,-5.985049009E-1,-1.983458519E0,3.643905401E0,4.191701610E0
2.841297040E0,-1.156758547E0,-2.030904770E0,3.230761528E0,3.987541169E0
2.846245217E0,-1.627785563E0,-1.957386017E0,2.591421127E0,3.632700004E0
2.851193446E0,-2.077631950E0,-1.835115433E0,1.702877998E0,3.253305496E0
2.856141623E0,-2.412222862E0,-1.676506042E0,7.838156223E-1,3.040371454E0
2.861089801E0,-2.590104103E0,-1.445871353E0,-3.214621544E-2,2.966515905E0
2.866037978E0,-2.734441519E0,-1.179376602E0,-6.615540981E-1,3.050533300E0
2.870986155E0,-2.832670212E0,-9.558534622E-1,-1.105351925E0,3.187393802E0
2.875934332E0,-2.788458347E0,-7.561492920E-1,-1.311401129E0,3.172859062E0
2.880882509E0,-2.600160837E0,-5.079660416E-1,-1.310245991E0,2.955606610E0
2.885830686E0,-2.354214668E0,-3.354740143E-1,-1.085853577E0,2.614181996E0
2.890778863E0,-2.068081141E0,-6.827735901E-2,-6.374320984E-1,2.165165370E0
2.895727092E0,-1.773365140E0,1.194210052E-1,-9.109497070E-3,1.777404928E0
2.900675269E0,-1.442325950E0,3.094205856E-1,5.712673664E-1,1.581894955E0
2.905623446E0,-1.171565056E0,4.587230682E-1,1.130523205E0,1.691471031E0
2.910571623E0,-9.048579335E-1,5.699672699E-1,1.630526066E0,1.949934825E0
2.915519801E0,-6.666001081E-1,7.458858490E-1,1.978713393E0,2.217207274E0
2.920467978E0,-5.103385448E-1,8.453960419E-1,2.247270107E0,2.454661450E0
2.925416155E0,-4.238574505E-1,9.285221100E-1,2.479122877E0,2.681018218E0
2.930364332E0,-4.261885881E-1,1.050106525E0,2.572016954E0,2.810628336E0
2.935312509E0,-4.733165503E-1,1.138621330E0,2.473056555E0,2.763421034E0
2.940260738E0,-5.262678266E-1,1.143935204E0,2.333159208E0,2.651259600E0
2.945208915E0,-5.077610016E-1,1.221654892E0,2.176098585E0,2.546697265E0
2.950157092E0,-4.860703945E-1,1.281055450E0,2.003880978E0,2.427530941E0
2.955105269E0,-4.201326072E-1,1.346029282E0,1.862159967E0,2.335796648E0
2.960053446E0,-3.785229623E-1,1.419312477E0,1.869810104E0,2.377796746E0
2.965001623E0,-3.460871875E-1,1.438801765E0,1.959709883E0,2.455685177E0
2.969949801E0,-3.083116412E-1,1.500535488E0,2.061958313E0,2.568722426E0
2.974898030E0,-2.528846264E-1,1.576121330E0,2.204737186E0,2.721943266E0
2.979846207E0,-1.115112603E-1,1.694219589E0,2.393021345E0,2.934172104E0
2.984794384E0,1.017246544E-1,1.971689701E0,2.603323936E0,3.267293023E0
2.989742561E0,3.235805333E-1,2.265496254E0,2.853760719E0,3.658022400E0
2.994690738E0,5.180070996E-1,2.584712505E0,3.087880611E0,4.060058714E0
2.999638915E0,6.817929149E-1,2.898861408E0,3.249720812E0,4.407825359E0
3.004587092E0,8.166594505E-1,3.298855305E0,3.418245554E0,4.820143322E0
3.009535269E0,8.894061446E-1,3.677574158E0,3.621153355E0,5.237207901E0
3.014483446E0,8.755429983E-1,3.867329121E0,3.672702312E0,5.404771257E0
3.019431676E0,9.145265222E-1,4.011929035E0,3.556281567E0,5.438664535E0
3.024379853E0,1.035809398E0,4.194667816E0,3.382891178E0,5.487448580E0
3.029328030E0,1.203290701E0,4.391395569E0,3.274859190E0,5.608651020E0
3.034276207E0,1.345799685E0,4.566095352E0,3.196450710E0,5.733907978E0
3.039224384E0,1.470174193E0,4.723612785E0,3.128410339E0,5.853279521E0
3.044172561E0,1.590856552E0,4.765799522E0,3.137912273E0,5.923695054E0
3.049120738E0,1.745773673E0,4.786161423E0,3.119399309E0,5.973752500E0
3.054068967E0,1.860208273E0,4.796670437E0,3.044169903E0,5.977908706E0
3.059017144E0,1.917038798E0,4.783212185E0,2.950054646E0,5.937758750E0
3.063965321E0,1.910770535E0,4.736285686E0,2.896662235E0,5.871464745E0
3.068913498E0,1.853560567E0,4.655694962E0,2.738423586E0,5.710529405E0
3.073861676E0,1.766819000E0,4.517704010E0,2.494230509E0,5.454583828E0
3.078809853E0,1.686743259E0,4.357903957E0,2.193371296E0,5.162102998E0
3.083758030E0,1.680396438E0,4.190870762E0,1.816184282E0,4.866791066E0
3.088706207E0,1.706847429E0,4.016440868E0,1.384390354E0,4.578390771E0
3.093654384E0,1.811561942E0,3.870513439E0,9.957094193E-1,4.387945784E0
3.098602613E0,1.870037317E0,3.767082691E0,6.408152580E-1,4.254244441E0
3.103550790E0,1.932534814E0,3.655863762E0,2.930614948E-1,4.145589909E0
3.108498967E0,1.970014095E0,3.497752190E0,-8.901095390E-2,4.015364101E0
3.113447144E0,2.027292252E0,3.345242977E0,-5.052018166E-1,3.944083331E0
3.118395321E0,2.065505266E0,3.063474655E0,-1.048939943E0,3.840763462E0
3.123343498E0,2.124806166E0,2.682868004E0,-1.746672869E0,3.842323266E0
3.128291676E0,2.168927670E0,2.128564835E0,-2.519249916E0,3.947360590E0
3.133239853E0,2.216017485E0,1.390401363E0,-3.418883324E0,4.304963719E0
3.138188030E0,2.245412827E0,5.226802826E-1,-4.310697556E0,4.888474901E0
3.143136259E0,2.332788944E0,-4.872446060E-1,-5.193581581E0,5.714245462E0
3.148084436E0,2.385869980E0,-1.644443512E0,-6.043344498E0,6.702132701E0
3.153032613E0,2.332063437E0,-3.061473846E0,-6.924668312E0,7.922258088E0
3.157980790E0,1.976330757E0,-4.845242500E0,-7.897464275E0,9.473763778E0
3.162928967E0,1.395501971E0,-6.896954536E0,-8.850071907E0,1.130659898E1
3.167877144E0,7.786445618E-1,-9.060089111E0,-9.493812561E0,1.314625342E1
3.172825321E0,3.370101452E-1,-1.104976368E1,-9.838226318E0,1.479870097E1
3.177773498E0,8.314959705E-2,-1.256098938E1,-1.017234421E1,1.616359968E1
3.182721676E0,3.594717383E-1,-1.317405415E1,-1.050145721E1,1.685127669E1
3.187669905E0,8.585187197E-1,-1.291921329E1,-1.066358948E1,1.677364800E1
3.192618082E0,1.281520486E0,-1.174143124E1,-1.037393284E1,1.572011402E1
3.197566259E0,1.510588527E0,-9.751104355E0,-9.556826591E0,1.373676994E1
3.202514436E0,1.745345116E0,-7.284280777E0,-7.919346809E0,1.090059769E1
3.207462613E0,2.193698406E0,-4.607376099E0,-5.787239552E0,7.715722185E0
3.212410790E0,2.789040804E0,-1.845534325E0,-3.513868809E0,4.850981298E0
3.217358967E0,3.430411816E0,8.634967804E-1,-1.541025162E0,3.858511431E0
3.222307144E0,3.943810940E0,3.355760574E0,1.827788353E-1,5.181523122E0
3.227255321E0,4.328112125E0,5.433311939E0,1.583841562E0,7.124744718E0
3.232203551E0,4.403523922E0,6.974990845E0,2.729457378E0,8.688582036E0
3.237151728E0,4.257947445E0,7.950473785E0,3.703910351E0,9.749825729E0
3.242099905E0,3.821785450E0,8.168630600E0,4.236571789E0,9.963990688E0
3.247048082E0,3.286824226E0,7.773386478E0,4.413264751E0,9.523951733E0
3.251996259E0,2.637295246E0,6.714613914E0,4.183710575E0,8.339352518E0
3.256944436E0,2.019685030E0,5.138337612E0,3.868087530E0,6.741197385E0
3.261892613E0,1.580157280E0,3.286226273E0,3.458091259E0,5.025393049E0
3.266840790E0,1.021655083E0,1.265878201E0,3.060135841E0,3.465639637E0
3.271788967E0,3.757410049E-1,-8.078927994E-1,2.543647528E0,2.695183634E0
3.276737196E0,-3.758624196E-1,-2.927744865E0,2.033668518E0,3.584518126E0
3.281685373E0,-1.225374341E0,-4.939956665E0,1.909624100E0,5.436117947E0
3.286633551E0,-2.026067734E0,-6.660527229E0,2.083126307E0,7.266841724E0
3.291581728E0,-2.729918718E0,-8.001323700E0,2.221853256E0,8.741296760E0
3.296529905E0,-3.367354155E0,-9.042282104E0,2.405896425E0,9.944359068E0
3.301478082E0,-3.548768759E0,-9.588313103E0,2.829144955E0,1.060818406E1
3.306426259E0,-3.367756367E0,-9.676774025E0,3.606433153E0,1.086223267E1
3.311374436E0,-2.768672705E0,-9.270631790E0,4.440576077E0,1.064560370E1
3.316322613E0,-1.668270588E0,-8.537123680E0,4.908352852E0,9.987869403E0
3.321270842E0,-3.529673219E-1,-7.633437157E0,4.768916130E0,9.007580686E0
3.326219019E0,1.102299690E0,-6.542057991E0,3.866399527E0,7.678712956E0
3.331167196E0,2.280826330E0,-5.265667915E0,2.367681026E0,6.207684011E0
3.336115373E0,2.885899067E0,-3.724474907E0,7.477085590E-1,4.770659791E0
3.341063551E0,3.104465485E0,-1.838028908E0,-8.417019844E-1,3.704661718E0
3.346011728E0,3.233152628E0,2.662172318E-1,-2.049138546E0,3.837071319E0
3.350959905E0,3.213526487E0,2.271665573E0,-2.090076685E0,4.455966507E0
3.355908082E0,3.170819998E0,3.909615040E0,-1.299567938E0,5.198852378E0
3.360856259E0,2.856688738E0,5.056735992E0,2.499699593E-1,5.813237861E0
3.365804436E0,2.376993895E0,5.697069645E0,2.207178116E0,6.555786585E0
3.370752665E0,1.913623452E0,5.905012131E0,3.995468616E0,7.382065595E0
3.375700842E0,1.361414075E0,5.797326565E0,5.289402008E0,7.964936735E0
3.380649019E0,7.368034124E-1,5.373245239E0,6.071042061E0,8.140773635E0
3.385597196E0,9.150359780E-2,4.663567543E0,6.484107018E0,7.987545239E0
3.390545373E0,-9.303368330E-1,3.756539822E0,6.590682983E0,7.642919615E0
3.395493551E0,-1.892359734E0,2.707166672E0,6.530747414E0,7.318499746E0
3.400441728E0,-2.781091213E0,1.591720104E0,6.305906296E0,7.073365213E0
3.405389905E0,-3.688472986E0,4.150924683E-1,5.921253204E0,6.988445767E0
3.410338082E0,-4.590625763E0,-7.462787628E-1,5.492262363E0,7.196924535E0
3.415286259E0,-5.495517731E0,-1.870576859E0,5.276153564E0,7.844588539E0
3.420234488E0,-6.331858158E0,-2.864497185E0,5.257682800E0,8.714413364E0
3.425182665E0,-6.878669262E0,-3.742380142E0,5.342371941E0,9.479580048E0
3.430130842E0,-7.135155201E0,-4.399202347E0,5.304865360E0,9.919930318E0
3.435079019E0,-6.886574268E0,-4.661102295E0,4.978665352E0,9.692156027E0
3.440027196E0,-6.084445000E0,-4.492917061E0,4.292623520E0,8.696746021E0
3.444975373E0,-4.873538494E0,-4.022388458E0,3.451761723E0,7.200392028E0
3.449923551E0,-3.630467653E0,-3.355010033E0,2.592019796E0,5.581662326E0
3.454871728E0,-2.491640091E0,-2.572510719E0,1.850178123E0,4.031034709E0
3.459819905E0,-1.514976859E0,-1.784934044E0,1.330913544E0,2.693042013E0
3.464768082E0,-5.834450722E-1,-1.042445183E0,9.667170048E-1,1.536763443E0
3.469716311E0,3.948652446E-1,-4.333925247E-1,6.499322653E-1,8.753054275E-1
3.474664488E0,1.347086430E0,1.046009064E-1,3.640234470E-1,1.399319931E0
3.479612665E0,2.229437351E0,5.787801743E-1,9.124159813E-3,2.303358557E0
3.484560842E0,2.964170218E0,9.605159760E-1,-4.088064432E-1,3.142613359E0
3.489509019E0,3.548116446E0,1.338695526E0,-7.348390818E-1,3.862800085E0
3.494457196E0,3.997428417E0,1.773307800E0,-6.681115627E-1,4.423847597E0
3.499405373E0,4.078193665E0,2.049290180E0,-3.963580132E-1,4.581304780E0
3.504353551E0,3.791334867E0,2.186118126E0,2.610675097E-1,4.384231835E0
3.509301728E0,3.345994473E0,2.157507896E0,7.808191776E-1,4.057116947E0
3.514249905E0,2.801688671E0,2.006338120E0,7.123723626E-1,3.518853001E0
3.519198134E0,2.070445061E0,1.821148872E0,5.376570821E-1,2.809341756E0
3.524146311E0,1.444930673E0,1.683146954E0,4.031667113E-1,2.254628952E0
3.529094488E0,8.938280344E-1,1.554098129E0,2.440721989E-1,1.809342640E0
3.534042665E0,4.101753235E-1,1.405246735E0,7.041299343E-2,1.465578442E0
3.538990842E0,-2.811312675E-2,1.270281792E0,-1.572585106E-2,1.270690159E0
3.543939019E0,-3.592542410E-1,1.146860123E0,2.148836851E-2,1.202003952E0
3.548887196E0,-5.527592897E-1,1.068640709E0,1.664826274E-1,1.214599630E0
3.553835373E0,-6.445951462E-1,1.061840057E0,1.491922140E-1,1.251105722E0
3.558783551E0,-7.904953957E-1,1.083461761E0,3.130740225E-1,1.377239160E0
3.563731728E0,-9.251173735E-1,1.049721718E0,5.114883184E-1,1.489757745E0
3.568679905E0,-9.697134495E-1,1.054005623E0,9.561470747E-1,1.722059597E0
3.573628134E0,-9.483944178E-1,1.057986259E0,1.364419937E0,1.969880367E0
3.578576311E0,-8.252825737E-1,1.111808777E0,1.564170599E0,2.088980552E0
3.583524488E0,-7.205983400E-1,1.193907738E0,1.611126304E0,2.130822757E0
3.588472665E0,-6.075837612E-1,1.292145729E0,1.513632417E0,2.080836780E0
3.593420842E0,-5.326657295E-1,1.435338974E0,1.248205185E0,1.975334638E0
3.598369019E0,-4.642943144E-1,1.575523376E0,9.664412737E-1,1.905741812E0
3.603317196E0,-4.294570684E-1,1.650672436E0,6.138795614E-1,1.812733014E0
3.608265373E0,-4.133855104E-1,1.670403004E0,3.128085136E-1,1.748994837E0
3.613213551E0,-3.971447945E-1,1.651591301E0,7.237523794E-2,1.700210572E0
3.618161728E0,-3.972725868E-1,1.603849888E0,-2.576560527E-2,1.652520450E0
3.623109905E0,-4.302183390E-1,1.500895500E0,-6.546159089E-2,1.562709295E0
3.628058134E0,-4.645788670E-1,1.333218575E0,-8.990725875E-2,1.414704424E0
3.633006311E0,-4.550100565E-1,1.246807098E0,-1.367448717E-1,1.334264311E0
3.637954488E0,-3.369783163E-1,1.222441673E0,-2.109993994E-1,1.285472200E0
3.642902665E0,-1.729052067E-1,1.166829109E0,-4.467657506E-1,1.261342942E0
3.647850842E0,1.159183979E-1,1.099111557E0,-5.748964548E-1,1.245788595E0
3.652799019E0,2.926305532E-1,9.737491608E-1,-6.140848398E-1,1.187821645E0
3.657747196E0,5.415443182E-1,8.767795563E-1,-4.766467810E-1,1.135431545E0
3.662695373E0,6.739364862E-1,7.148303986E-1,-5.163120031E-1,1.109842768E0
3.667643551E0,6.685864925E-1,5.692968369E-1,-7.700199485E-1,1.167920163E0
3.672591728E0,5.594515800E-1,4.211874008E-1,-1.115527034E0,1.317112547E0
3.677539905E0,4.015613794E-1,2.946510315E-1,-1.598746777E0,1.674533376E0
3.682488082E0,2.211279869E-1,2.114114761E-1,-2.146618366E0,2.168308744E0
3.687436311E0,6.517052650E-3,1.691408157E-1,-2.727308512E0,2.732556094E0
3.692384488E0,-1.878466606E-1,1.248149872E-1,-3.260560513E0,3.268351267E0
3.697332665E0,-2.975163460E-1,1.334075928E-1,-3.529635906E0,3.544664045E0
3.702280842E0,-3.349932432E-1,1.637058258E-1,-3.442924738E0,3.463055128E0
3.707229019E0,-4.288560152E-1,6.482601166E-2,-3.403492451E0,3.431017452E0
3.712177196E0,-4.451878071E-1,-1.487483978E-1,-3.292041302E0,3.325335201E0
3.717125373E0,-2.407939434E-1,-2.808361053E-1,-3.101798534E0,3.123780528E0
3.722073551E0,-1.700210571E-2,-4.676856995E-1,-2.942093849E0,2.979082947E0
3.727021728E0,2.686600685E-1,-5.489435196E-1,-2.851135969E0,2.915903554E0
3.731969905E0,4.579814672E-1,-8.090801239E-1,-2.885389328E0,3.031473115E0
3.736918082E0,5.549933910E-1,-1.089723587E0,-3.117728233E0,3.348991564E0
3.741866259E0,5.152253509E-1,-1.257054329E0,-3.227402449E0,3.501680927E0
3.746814488E0,1.860845089E-1,-1.428210258E0,-3.259013176E0,3.563085582E0
3.751762665E0,-4.135332108E-1,-1.715803146E0,-3.265318871E0,3.711778210E0
3.756710842E0,-1.167489767E0,-1.995321274E0,-3.240892887E0,3.980920251E0
3.761659019E0,-1.883395433E0,-2.185477257E0,-3.092171431E0,4.229067670E0
3.766607196E0,-2.412034512E0,-2.332056046E0,-2.760335445E0,4.344634352E0
3.771555373E0,-2.702940941E0,-2.444680214E0,-2.267109156E0,4.292101467E0
3.776503551E0,-2.781837702E0,-2.526014328E0,-1.685244322E0,4.118181372E0
3.781451728E0,-2.701757669E0,-2.552154541E0,-1.132156968E0,3.885198413E0
3.786399905E0,-2.601162910E0,-2.427614212E0,-7.324509621E-1,3.632608383E0
3.791348082E0,-2.578162670E0,-2.193181992E0,-6.054089069E-1,3.438530201E0
3.796296259E0,-2.723867416E0,-1.879851341E0,-7.140487432E-1,3.385728928E0
3.801244436E0,-2.942653656E0,-1.626583099E0,-9.276443720E-1,3.487908714E0
3.806192613E0,-3.182636499E0,-1.409471512E0,-1.101112366E0,3.650785323E0
3.811140842E0,-3.301100492E0,-1.269259453E0,-1.285847783E0,3.763201900E0
3.816089019E0,-3.268402576E0,-1.186874390E0,-1.380464435E0,3.741230850E0
3.821037196E0,-3.011317730E0,-1.269738197E0,-1.566745162E0,3.624218531E0
3.825985373E0,-2.564189434E0,-1.565329552E0,-1.856241941E0,3.531424387E0
3.830933551E0,-2.011106730E0,-1.915306091E0,-2.247678757E0,3.572815066E0
3.835881728E0,-1.380667210E0,-2.254909515E0,-2.749749660E0,3.814706026E0
3.840829905E0,-7.276684046E-1,-2.512109756E0,-3.346344471E0,4.247142340E0
3.845778082E0,-1.522731781E-1,-2.679755211E0,-3.919625282E0,4.750551280E0
3.850726259E0,3.672947884E-1,-2.690881729E0,-4.433019638E0,5.198789576E0
3.855674436E0,6.850998998E-1,-2.605228424E0,-4.799437523E0,5.503742141E0
3.860622613E0,7.937114239E-1,-2.413177490E0,-4.956185341E0,5.569306650E0
3.865570842E0,5.670893192E-1,-2.220047951E0,-4.907785416E0,5.416323558E0
3.870519019E0,-3.510451317E-2,-2.202739716E0,-4.646903515E0,5.142665346E0
3.875467196E0,-1.121606469E0,-2.404149055E0,-4.281011105E0,5.036366729E0
3.880415373E0,-2.402192831E0,-2.730947495E0,-3.846496344E0,5.293783027E0
3.885363551E0,-3.653149128E0,-3.118680954E0,-3.367583752E0,5.866198920E0
3.890311728E0,-4.632436275E0,-3.529315948E0,-2.878496885E0,6.496251321E0
3.895259905E0,-5.236465454E0,-3.848330498E0,-2.264789581E0,6.881823154E0
3.900208082E0,-5.353392601E0,-3.913468361E0,-1.615729094E0,6.825293214E0
3.905156259E0,-5.143925667E0,-3.751314163E0,-9.901194572E-1,6.443032342E0
3.910104436E0,-4.845449448E0,-3.596482277E0,-4.373565316E-1,6.050152548E0
3.915052613E0,-4.641926289E0,-3.446646690E0,1.081831455E-1,5.782608120E0
3.920000790E0,-4.508737564E0,-3.323369980E0,6.462577581E-1,5.638364261E0
3.924949019E0,-3.972566605E0,-2.655505180E0,1.400359869E0,4.979357484E0
3.929897196E0,-4.014472008E0,-2.606066704E0,1.754792690E0,5.097731510E0
3.934845373E0,-3.966219425E0,-2.459639549E0,1.926837206E0,5.049101391E0
3.939793551E0,-3.694296360E0,-2.226102829E0,1.856181145E0,4.695611552E0
3.944741728E0,-3.276405096E0,-2.010724068E0,1.661329627E0,4.187822556E0
3.949689905E0,-2.720915794E0,-1.811131477E0,1.378502965E0,3.547372325E0
3.954638082E0,-2.052942753E0,-1.550791740E0,1.107070446E0,2.800916625E0
3.959586259E0,-1.362817764E0,-1.277635574E0,8.993430138E-1,2.073268621E0
3.964534436E0,-6.609933376E-1,-9.726810455E-1,8.312794566E-1,1.440154903E0
3.969482613E0,8.754420280E-2,-6.791257858E-1,8.922871947E-1,1.124745419E0
3.974430790E0,6.207199693E-1,-6.268224716E-1,1.062509418E0,1.380987311E0
3.979378967E0,1.031964540E0,-7.462797165E-1,1.183034062E0,1.738232959E0
3.984327144E0,1.313297749E0,-1.032773972E0,1.446296453E0,2.209784262E0
3.989275321E0,1.398304701E0,-1.502861023E0,1.778621435E0,2.716126194E0
3.994223551E0,1.248212934E0,-2.063203812E0,2.018821478E0,3.144914252E0
3.999171728E0,1.062110543E0,-2.749428749E0,2.172792196E0,3.661756843E0
4.004119905E0,9.987230301E-1,-3.408174515E0,2.389662504E0,4.280606043E0
4.009068082E0,1.005194426E0,-3.977007866E0,2.761724949E0,4.945111939E0
4.014016259E0,1.095995784E0,-4.424680710E0,2.996436119E0,5.455055963E0
4.018964436E0,1.178114533E0,-4.708255768E0,2.937067509E0,5.672917396E0
4.023912613E0,1.189746261E0,-4.815834999E0,2.684334278E0,5.640338059E0
4.028860790E0,1.186057687E0,-4.809684753E0,2.379810333E0,5.495752677E0
4.033808967E0,1.228893876E0,-4.716277122E0,2.003206730E0,5.269372568E0
4.038757144E0,1.250717759E0,-4.597720146E0,1.683748960E0,5.053546875E0
4.043705321E0,1.277303100E0,-4.415781975E0,1.589506745E0,4.863863213E0
4.048653498E0,1.229691148E0,-4.149010658E0,1.455090761E0,4.565492184E0
4.053601676E0,1.159900784E0,-3.852533340E0,1.391247630E0,4.257106169E0
4.058549853E0,1.152706861E0,-3.463994980E0,1.440830350E0,3.924791259E0
4.063498082E0,1.248521090E0,-2.930941582E0,1.692516208E0,3.607469276E0
4.068446259E0,1.219256639E0,-2.430378914E0,2.086292982E0,3.427236033E0
4.073394436E0,9.523861408E-1,-1.957292557E0,2.645445108E0,3.425844908E0
4.078342613E0,6.311479211E-1,-1.427586555E0,3.428878546E0,3.767434028E0
4.083290790E0,2.164157629E-1,-9.175844193E-1,4.340350628E0,4.441558344E0
4.088238967E0,-2.009106874E-1,-3.793869019E-1,5.114305496E0,5.132291909E0
4.093187144E0,-6.619200110E-1,1.270017624E-1,5.378723145E0,5.420786863E0
4.098135321E0,-1.025501251E0,6.585330963E-1,5.197741508E0,5.338711028E0
4.103083498E0,-1.308218956E0,1.181580544E0,4.961695671E0,5.265547773E0
4.108031676E0,-1.618081093E0,1.483400345E0,4.445599079E0,4.958025230E0
4.112979853E0,-1.722873211E0,1.791450500E0,4.263936043E0,4.935457180E0
4.117928030E0,-1.985387802E0,2.053143501E0,4.169542313E0,5.053933721E0
4.122876259E0,-2.350317001E0,2.201589584E0,3.896274090E0,5.054892530E0
4.127824436E0,-2.798582077E0,2.215262413E0,3.188528061E0,4.786038069E0
4.132772613E0,-3.091401577E0,2.235771179E0,2.521648407E0,4.573198789E0
4.137720790E0,-3.278481722E0,2.294538975E0,2.129308224E0,4.532913524E0
4.142668967E0,-3.221086025E0,2.363490582E0,2.014786720E0,4.474466274E0
4.147617144E0,-3.010546684E0,2.450677395E0,2.102102041E0,4.414526478E0
4.152565321E0,-2.757275820E0,2.544507980E0,2.299805164E0,4.400703876E0
4.157513498E0,-2.439849377E0,2.614288330E0,2.468691111E0,4.345319810E0
4.162461676E0,-2.053323984E0,2.604865074E0,2.413515091E0,4.102013717E0
4.167409853E0,-1.736064911E0,2.513715267E0,2.223834753E0,3.778640870E0
4.172358030E0,-1.399449110E0,2.405128956E0,2.029976606E0,3.444402434E0
4.177306207E0,-1.031815648E0,2.247718334E0,1.847182512E0,3.086902084E0
4.182254384E0,-7.144659758E-1,2.072367668E0,1.745470285E0,2.802112756E0
4.187202561E0,-4.762158990E-1,1.859755516E0,1.720530987E0,2.577925336E0
4.192150738E0,-2.980154455E-1,1.645685196E0,1.834766626E0,2.482631979E0
4.197098967E0,-1.943301409E-1,1.403910637E0,2.066486597E0,2.505812470E0
4.202047144E0,-8.159574866E-2,1.213176250E0,2.320365667E0,2.619647173E0
4.206995321E0,9.290568531E-3,1.109538555E0,2.617492676E0,2.842961489E0
4.211943498E0,1.426318586E-1,1.049838066E0,2.917260170E0,3.103693076E0
4.216891676E0,1.772105545E-1,1.005672932E0,3.216705561E0,3.374903893E0
4.221839853E0,2.542138696E-1,1.022767067E0,3.558366299E0,3.711151827E0
4.226788030E0,3.305902183E-1,1.122539043E0,3.803627968E0,3.979569011E0
4.231736207E0,3.828513622E-1,1.285917282E0,3.985873699E0,4.205632838E0
4.236684384E0,4.208029509E-1,1.498526573E0,4.071684837E0,4.359045128E0
4.241632561E0,5.429661274E-1,1.741141319E0,4.113921165E0,4.500081406E0
4.246580738E0,6.345520616E-1,2.016326904E0,4.140999794E0,4.649312831E0
4.251528915E0,7.055869102E-1,2.304766655E0,4.124559402E0,4.777215977E0
4.256477092E0,8.347330689E-1,2.640144348E0,4.121645927E0,4.965390884E0
4.261425269E0,8.996442556E-1,2.986518860E0,4.192038536E0,5.225116436E0
4.266373498E0,9.504789114E-1,3.327386856E0,4.277794838E0,5.502221563E0
4.271321676E0,9.753900766E-1,3.595939159E0,4.314068794E0,5.700294185E0
4.276269853E0,9.744569659E-1,3.852042198E0,4.331964970E0,5.878240891E0
4.281218030E0,9.578400254E-1,3.995341778E0,4.307456017E0,5.952679293E0
4.286166207E0,9.832341671E-1,4.176699638E0,4.187757015E0,5.995738329E0
4.291114384E0,1.076791167E0,4.376896381E0,4.118800163E0,6.105834581E0
4.296062561E0,1.121716857E0,4.498192310E0,4.080659389E0,6.176063781E0
4.301010738E0,1.254342675E0,4.602790833E0,3.951271534E0,6.194481877E0
4.305958915E0,1.407445431E0,4.657244682E0,3.821357965E0,6.186566687E0
4.310907092E0,1.631187320E0,4.702450752E0,3.675935745E0,6.187593939E0
4.315855269E0,1.838295221E0,4.723956108E0,3.536432743E0,6.180731929E0
4.320803446E0,2.107324839E0,4.676111698E0,3.343211889E0,6.122410010E0
4.325751623E0,2.372476101E0,4.585327148E0,3.100721121E0,6.022320099E0
4.330699801E0,2.662068367E0,4.477567196E0,2.759245396E0,5.894798651E0
4.335648030E0,2.953401089E0,4.321533680E0,2.278413057E0,5.708712412E0
4.340596207E0,3.272167683E0,4.129085541E0,1.854472399E0,5.585292886E0
4.345544384E0,3.542992115E0,3.924071312E0,1.346198320E0,5.455582343E0
4.350492561E0,3.762616634E0,3.706192493E0,9.190924168E-1,5.360772109E0
4.355440738E0,3.841551304E0,3.329311371E0,4.634921551E-1,5.104572029E0
4.360388915E0,3.741343737E0,2.799910069E0,-1.071434021E-1,4.674251711E0
4.365337092E0,3.427165508E0,1.985554218E0,-1.127205849E0,4.118067751E0
4.370285269E0,2.922685862E0,7.611694336E-1,-2.469016314E0,3.900963100E0
4.375233446E0,2.461778641E0,-7.233772278E-1,-3.827220678E0,4.607737711E0
4.380181623E0,2.129637718E0,-2.294547081E0,-5.149440289E0,6.026361954E0
4.385129801E0,1.956474304E0,-3.826412201E0,-6.104100227E0,7.465203388E0
4.390077978E0,1.767654896E0,-5.426970482E0,-6.435378075E0,8.601784896E0
4.395026155E0,1.544457436E0,-7.239423752E0,-6.334244251E0,9.742548705E0
4.399974332E0,1.158628464E0,-9.215295792E0,-6.363214016E0,1.125853405E1
4.404922509E0,8.755639791E-1,-1.106766796E1,-6.796224594E0,1.301724069E1
4.409870686E0,6.297163367E-1,-1.289331341E1,-8.204731941E0,1.529547971E1
4.414818863E0,6.384619474E-1,-1.412460423E1,-1.047990704E1,1.759944686E1
4.419767092E0,1.004303694E0,-1.428047276E1,-1.323004532E1,1.949293788E1
4.424715269E0,1.407615304E0,-1.328165817E1,-1.599884605E1,2.084099085E1
4.429663446E0,1.093345523E0,-1.152359486E1,-1.817088318E1,2.154459650E1
4.434611623E0,5.259940028E-1,-9.064118385E0,-1.867246246E1,2.076284581E1
4.439559801E0,1.591459960E-1,-6.103908539E0,-1.658415031E1,1.767249469E1
4.444507978E0,3.827081621E-2,-2.862209320E0,-1.277604485E1,1.309278537E1
4.449456155E0,7.983128726E-2,3.075065613E-1,-8.004970551E0,8.011272485E0
4.454404332E0,1.959804147E-1,3.185315132E0,-3.144165516E0,4.480001965E0
4.459352509E0,1.498258114E-1,5.522660255E0,1.334214449E0,5.683515837E0
4.464300686E0,-3.090253472E-2,7.242203236E0,5.118956566E0,8.868719129E0
4.469248863E0,-2.105232924E-1,8.069395065E0,7.600134850E0,1.108699718E1
4.474197040E0,-3.790401816E-1,7.854401588E0,8.911737442E0,1.188504775E1
4.479145217E0,-7.354474664E-1,6.488193512E0,9.424214363E0,1.146531092E1
4.484093394E0,-1.532197595E0,4.365869999E0,9.214498520E0,1.031093756E1
4.489041571E0,-2.266556978E0,2.031611919E0,8.148880959E0,8.698792353E0
4.493989801E0,-2.845307589E0,-3.492374420E-1,6.517811775E0,7.120366030E0
4.498937978E0,-3.214801788E0,-2.719390869E0,4.793814659E0,6.380493415E0
4.503886155E0,-3.842786551E0,-5.198187828E0,3.171256542E0,7.200349521E0
4.508834332E0,-5.193005085E0,-7.825922966E0,1.450242996E0,9.503450785E0
4.513782509E0,-6.781558037E0,-1.025428867E1,-1.314098835E-1,1.229460183E1
4.518730686E0,-8.350133896E0,-1.204127884E1,-9.415259361E-1,1.468344657E1
4.523678863E0,-9.161786079E0,-1.290919018E1,-9.002089500E-1,1.585546882E1
4.528627040E0,-8.548578262E0,-1.281430531E1,1.461460590E-1,1.540473854E1
4.533575217E0,-5.905915260E0,-1.127717876E1,2.067129135E0,1.289680654E1
4.538523394E0,-2.722661018E0,-8.757797241E0,4.110469818E0,1.005026655E1
4.543471571E0,-1.395328641E-1,-5.804646492E0,5.237401009E0,7.819447528E0
4.548419748E0,2.507897139E0,-2.422862053E0,5.886362553E0,6.841715624E0
4.553367926E0,5.213567257E0,8.400106430E-1,6.429881573E0,8.320473452E0
4.558316103E0,7.568554878E0,3.432442665E0,7.368840694E0,1.110695722E1
4.563264280E0,9.535014153E0,5.482358932E0,8.352916718E0,1.381100909E1
4.568212457E0,1.115978622E1,6.896823883E0,8.930994034E0,1.587040210E1
4.573160634E0,1.250508213E1,7.772360802E0,8.950125694E0,1.723053747E1
4.578108863E0,1.282728004E1,8.280797958E0,8.465355873E0,1.745774837E1
4.583056936E0,1.141834927E1,8.091146469E0,7.138288498E0,1.570988586E1
4.588005165E0,8.733395576E0,7.116819859E0,5.183684349E0,1.240128649E1
4.592953394E0,5.685430050E0,5.609374046E0,2.790730476E0,8.460340929E0
4.597901571E0,2.752940416E0,3.837529659E0,3.381409645E-1,4.734939718E0
4.602849748E0,3.257036209E-1,2.046666145E0,-1.415925264E0,2.509934165E0
4.607797926E0,-1.867561102E0,4.288120270E-1,-2.349573612E0,3.031857580E0
4.612746103E0,-4.076126099E0,-9.673929214E-1,-2.526676655E0,4.892315194E0
4.617694280E0,-6.153793812E0,-2.209141731E0,-1.803335428E0,6.782440868E0
4.622642457E0,-7.903228760E0,-3.141467094E0,-4.848830700E-1,8.518506438E0
4.627590634E0,-8.980367661E0,-3.727983475E0,8.952915668E-1,9.764548689E0
4.632538811E0,-8.825419426E0,-3.802959442E0,1.543633819E0,9.733105051E0
4.637486988E0,-8.222685814E0,-3.649634361E0,2.605292082E0,9.365892365E0
4.642435165E0,-8.279977798E0,-3.947112083E0,4.174747467E0,1.007800787E1
4.647383342E0,-8.756697655E0,-4.453045845E0,5.877460480E0,1.144787809E1
4.652331519E0,-8.512119293E0,-4.445487022E0,6.794098854E0,1.176343100E1
4.657279696E0,-7.704425335E0,-4.235949516E0,6.693881989E0,1.105031647E1
4.662227873E0,-6.448427200E0,-3.834453583E0,6.238846779E0,9.757482092E0
4.667176051E0,-5.054703236E0,-3.236406326E0,5.551273823E0,8.175634028E0
4.672124228E0,-3.611251593E0,-2.496937752E0,4.836697578E0,6.532187969E0
4.677072405E0,-2.092067480E0,-1.735229492E0,4.045254707E0,4.873587321E0
4.682020582E0,-7.632273436E-1,-9.509086609E-1,3.218459129E0,3.441688892E0
4.686968811E0,3.358221650E-1,-1.267147064E-1,2.535890341E0,2.561166329E0
4.691916884E0,1.383800626E0,6.490259171E-1,1.867233992E0,2.413027474E0
4.696865165E0,2.119146824E0,1.467103004E0,1.105338573E0,2.804451435E0
4.701813342E0,2.475142956E0,2.135937691E0,6.408056021E-1,3.331545331E0
4.706761519E0,2.655708075E0,2.569209099E0,1.880083084E-1,3.699860524E0
4.711709696E0,2.863671541E0,2.874480247E0,-3.802609444E-1,4.075272969E0
4.716657873E0,2.991571426E0,2.984538555E0,-8.485158682E-1,4.310098510E0
4.721606051E0,2.989144802E0,2.930402279E0,-1.259646416E0,4.371378874E0
4.726554228E0,2.976581335E0,2.800522804E0,-1.785974383E0,4.460119832E0
4.731502405E0,2.812815666E0,2.616613865E0,-2.326122522E0,4.491040645E0
4.736450582E0,2.617198229E0,2.460296154E0,-2.447247505E0,4.346470302E0
4.741398759E0,2.334653854E0,2.233905315E0,-2.158657551E0,3.885967576E0
4.746346936E0,2.106400967E0,2.062185287E0,-1.680004478E0,3.392926206E0
4.751295113E0,1.737204313E0,1.820955276E0,-1.161945224E0,2.771980095E0
4.756243290E0,1.270913124E0,1.524806023E0,-6.015398502E-1,2.074151337E0
4.761191467E0,1.003945231E0,1.303222656E0,3.641928434E-1,1.684912979E0
4.766139644E0,6.872312427E-1,1.136782646E0,1.582577229E0,2.066183015E0
4.771087821E0,-1.272296906E-2,8.051166534E-1,2.449057579E0,2.578033694E0
4.776035998E0,-4.784082174E-1,6.405210495E-1,2.217754364E0,2.357451178E0
4.780984176E0,-5.888465643E-1,6.164321899E-1,1.661479473E0,1.867416119E0
4.785932353E0,-6.391910315E-1,7.183322906E-1,1.217097759E0,1.551094262E0
4.790880530E0,-6.662727594E-1,9.079494476E-1,9.420002699E-1,1.468215276E0
4.795828707E0,-6.422029734E-1,1.154227257E0,7.668209076E-1,1.527311207E0
4.800776936E0,-7.086210251E-1,1.354405403E0,6.359241009E-1,1.655583648E0
4.805725113E0,-7.700778246E-1,1.477545738E0,5.749876499E-1,1.762603773E0
4.810673290E0,-8.599232435E-1,1.511802673E0,5.378801823E-1,1.820530252E0
4.815621467E0,-9.399348497E-1,1.526648521E0,5.647367835E-1,1.879643813E0
4.820569644E0,-1.049746275E0,1.404790878E0,5.499176383E-1,1.837883038E0
4.825517821E0,-1.117445350E0,1.277867317E0,4.882374704E-1,1.766353537E0
4.830465998E0,-1.178722620E0,1.098016739E0,4.167821407E-1,1.663951660E0
4.835414176E0,-1.106753111E0,9.967861176E-1,2.468611896E-1,1.509776626E0
4.840362353E0,-9.735689163E-1,9.765005112E-1,1.993578672E-2,1.379052979E0
4.845310530E0,-8.034077883E-1,1.041858673E0,-2.478714138E-1,1.338795655E0
4.850258707E0,-6.059833765E-1,1.144879341E0,-3.879795671E-1,1.352217698E0
4.855206884E0,-4.269871712E-1,1.278255463E0,-3.995978236E-1,1.405679015E0
4.860155061E0,-2.350184917E-1,1.365269661E0,-4.198208153E-1,1.447565009E0
4.865103238E0,-4.724347591E-2,1.365289688E0,-5.251034498E-1,1.463550994E0
4.870051415E0,1.342294216E-1,1.321440697E0,-7.568753958E-1,1.528752242E0
4.874999592E0,1.110461950E-1,1.233864784E0,-1.079644442E0,1.643285028E0
4.879947769E0,-3.679990768E-2,1.074046135E0,-1.474055171E0,1.824217087E0
4.884895946E0,-2.925723791E-1,9.044733047E-1,-1.972147226E0,2.189300171E0
4.889844123E0,-5.341384411E-1,7.802915573E-1,-2.463387966E0,2.638643413E0
4.894792301E0,-7.029129267E-1,6.466455460E-1,-2.883741856E0,3.037795934E0
4.899740478E0,-7.302248478E-1,5.896539688E-1,-3.133882999E0,3.271412965E0
4.904688655E0,-6.192207336E-1,5.254545212E-1,-3.148520470E0,3.251571608E0
4.909636832E0,-4.845571518E-1,3.750457764E-1,-3.040833235E0,3.101954502E0
4.914585009E0,-2.307612896E-1,2.651443481E-1,-2.730521679E0,2.753053021E0
4.919533186E0,1.062924862E-1,8.093738556E-2,-2.380049944E0,2.383796696E0
4.924481415E0,5.452615023E-1,-6.034374237E-2,-2.001711130E0,2.075523770E0
4.929429592E0,9.071213603E-1,-3.832664490E-1,-1.796871543E0,2.049026519E0
4.934377769E0,1.239461660E0,-7.439193726E-1,-1.805088878E0,2.312580182E0
4.939325946E0,1.490572691E0,-1.153844833E0,-2.021432877E0,2.763938444E0
4.944274123E0,1.484026909E0,-1.703500748E0,-2.499108076E0,3.368945212E0
4.949222301E0,1.283008337E0,-2.189189911E0,-3.198333502E0,4.082646207E0
4.954170478E0,9.119466543E-1,-2.586897850E0,-3.845806599E0,4.723760746E0
4.959118655E0,3.863131404E-1,-2.954191208E0,-4.286571026E0,5.220265769E0
4.964066832E0,-3.144228458E-1,-3.240936279E0,-4.473312378E0,5.532906408E0
4.969015009E0,-1.081829071E0,-3.385208130E0,-4.442977905E0,5.689467540E0
4.973963186E0,-1.812073946E0,-3.349113464E0,-4.148745537E0,5.631364179E0
4.978911363E0,-2.430931807E0,-3.156887054E0,-3.627438068E0,5.388290291E0
4.983859540E0,-2.832691669E0,-2.813769341E0,-2.882837534E0,4.924651484E0
4.988807717E0,-3.170714378E0,-2.343869209E0,-2.070853710E0,4.453716159E0
4.993755894E0,-3.511939526E0,-1.919643402E0,-1.323770165E0,4.215580325E0
4.998704071E0,-3.863137722E0,-1.536373138E0,-7.663058043E-1,4.227469700E0
5.003652248E0,-4.377405167E0,-1.270799637E0,-3.828086853E-1,4.574183009E0
5.008600426E0,-4.765783310E0,-1.087087631E0,-2.697412968E-1,4.895631772E0
5.013548603E0,-4.950557709E0,-1.107202530E0,-4.875023365E-1,5.096231706E0
5.018496780E0,-4.747273445E0,-1.130042076E0,-8.929257393E-1,4.960939088E0
5.023444957E0,-4.173581123E0,-1.337400436E0,-1.507790089E0,4.634743819E0
5.028393134E0,-3.484298229E0,-1.759883881E0,-2.252169132E0,4.506638573E0
5.033341311E0,-2.612033367E0,-2.263068199E0,-2.985847235E0,4.567217938E0
5.038289488E0,-1.819895267E0,-2.743704796E0,-3.542326927E0,4.836115678E0
5.043237665E0,-1.073557377E0,-3.103439331E0,-3.951066971E0,5.137586139E0
5.048185842E0,-4.584332705E-1,-3.256375313E0,-3.970623016E0,5.155578375E0
5.053134019E0,1.382493973E-2,-3.240923882E0,-3.725242376E0,4.937733235E0
5.058082196E0,1.215073466E-1,-3.191320419E0,-3.373368979E0,4.645310358E0
5.063030373E0,-4.643183947E-2,-3.114754677E0,-2.981840134E0,4.312217897E0
5.067978551E0,-6.141374111E-1,-3.190518379E0,-2.693760395E0,4.220535198E0
5.072926728E0,-1.619206429E0,-3.480641365E0,-2.559199095E0,4.613696325E0
5.077874905E0,-2.841343403E0,-3.877067566E0,-2.670159340E0,5.498603108E0
5.082823082E0,-3.897882938E0,-4.126154900E0,-2.853659630E0,6.353110965E0
5.087771311E0,-4.574160099E0,-4.206317902E0,-2.988475800E0,6.895436063E0
5.092719488E0,-4.820598602E0,-4.086837769E0,-2.850101233E0,6.932783775E0
5.097667665E0,-4.683155060E0,-3.856395721E0,-2.392461300E0,6.521318912E0
5.102615842E0,-4.350994110E0,-3.666020393E0,-1.769275069E0,5.958287467E0
5.107564019E0,-4.014709949E0,-3.606661797E0,-1.077887654E0,5.503430484E0
5.112512196E0,-3.667082548E0,-3.542302132E0,-3.817911148E-1,5.112842973E0
5.117460373E0,-3.260379314E0,-3.344150543E0,3.063433170E-1,4.680519454E0
5.122408551E0,-2.577633619E0,-2.725732803E0,9.975143671E-1,3.881861577E0
5.127356728E0,-2.237816811E0,-2.668301582E0,1.007016301E0,3.625153685E0
5.132304905E0,-1.804424047E0,-2.542433739E0,9.778751135E-1,3.267438629E0
5.137253082E0,-1.147438169E0,-2.230985641E0,8.819600344E-1,2.659278997E0
5.142201259E0,-7.223889828E-1,-2.131140709E0,5.689682961E-1,2.321062577E0
5.147149436E0,-2.833878994E-1,-1.905549049E0,4.844206572E-1,1.986476593E0
5.152097613E0,8.957266808E-3,-1.858137131E0,4.854207039E-1,1.920517401E0
5.157045790E0,4.863840342E-1,-1.754487991E0,5.291101933E-1,1.895983950E0
5.161993967E0,1.037782192E0,-1.530273438E0,7.085003853E-1,1.980076127E0
5.166942144E0,1.641778946E0,-1.315095901E0,1.017362595E0,2.336651875E0
5.171890321E0,2.158007145E0,-1.190575600E0,1.571041703E0,2.922779008E0
5.176838498E0,2.434802294E0,-1.360144615E0,2.006892681E0,3.435967668E0
5.181786676E0,2.682990789E0,-1.524611473E0,2.454597473E0,3.943086161E0
5.186734853E0,2.890779972E0,-1.679170609E0,2.831622839E0,4.381131210E0
5.191683030E0,3.120973825E0,-1.840555191E0,3.122817993E0,4.783316135E0
5.196631207E0,2.930489540E0,-2.312518120E0,3.189051628E0,4.909741265E0
5.201579384E0,2.609823227E0,-2.786155701E0,3.087520361E0,4.909849574E0
5.206527561E0,2.415409088E0,-3.242183685E0,2.827166557E0,4.933439658E0
5.211475738E0,2.480975151E0,-3.565523148E0,2.433001041E0,4.978723439E0
5.216423915E0,2.516586781E0,-3.808773994E0,2.104179382E0,5.026682727E0
5.221372092E0,2.638767958E0,-3.998053551E0,1.749611855E0,5.099869623E0
5.226320269E0,2.773075104E0,-4.138167381E0,1.415739894E0,5.178676883E0
5.231268446E0,2.863768578E0,-4.226638794E0,1.117329240E0,5.226286501E0
5.236216623E0,2.999192715E0,-4.220566750E0,8.458852768E-1,5.246318950E0
5.241164801E0,3.039471626E0,-4.081611633E0,8.716472387E-1,5.163110516E0
5.246112978E0,2.936583519E0,-3.898319244E0,1.165627956E0,5.017878459E0
5.251061207E0,2.692286015E0,-3.687399864E0,1.775699377E0,4.898819248E0
5.256009280E0,2.329874516E0,-3.322017670E0,2.524582386E0,4.778873599E0
5.260957561E0,1.959080696E0,-2.910033226E0,2.984755039E0,4.605980156E0
5.265905738E0,1.461795807E0,-2.405812263E0,3.598430157E0,4.568750291E0
5.270853915E0,9.960249066E-1,-1.847391129E0,4.541231632E0,5.002769666E0
5.275802092E0,2.368462086E-1,-1.270848274E0,5.201209545E0,5.359452602E0
5.280750269E0,-5.188202858E-1,-7.026329041E-1,5.447696686E0,5.517269856E0
5.285698446E0,-1.110487461E0,-1.860609055E-1,5.238989353E0,5.358620205E0
5.290646623E0,-1.583501339E0,3.338356018E-1,4.960698128E0,5.217992776E0
5.295594801E0,-2.062113047E0,8.186845779E-1,4.734982491E0,5.229016527E0
5.300542978E0,-2.395918369E0,1.249558449E0,4.575596333E0,5.313934790E0
5.305491155E0,-2.556038141E0,1.643224716E0,4.324542999E0,5.285375162E0
5.310439332E0,-2.702078581E0,1.897019386E0,4.093733788E0,5.259141330E0
5.315387509E0,-2.923699379E0,1.949025154E0,4.073955536E0,5.379947102E0
5.320335686E0,-3.157158375E0,1.950010777E0,3.695958138E0,5.237394160E0
5.325283863E0,-3.234580278E0,1.952778816E0,3.194218636E0,4.947614311E0
5.330232040E0,-3.196900368E0,1.866657257E0,2.984654903E0,4.755286129E0
5.335180217E0,-2.967671156E0,1.785726547E0,2.969766378E0,4.562390134E0
5.340128394E0,-2.676596880E0,1.719958305E0,3.237182856E0,4.538918403E0
5.345076571E0,-2.310081005E0,1.701126099E0,3.601264954E0,4.604282085E0
5.350024748E0,-1.872521400E0,1.779640675E0,3.757958412E0,4.560231217E0
5.354972926E0,-1.450318694E0,1.895837784E0,3.673911095E0,4.381238175E0
5.359921103E0,-9.752579927E-1,2.027975082E0,3.445647478E0,4.115373328E0
5.364869280E0,-4.733485579E-1,2.137630939E0,2.942396641E0,3.667590883E0
5.369817457E0,-1.826693118E-1,2.193825245E0,2.630813599E0,3.430366959E0
5.374765634E0,6.478040665E-2,2.251829624E0,2.450724363E0,3.328811058E0
5.379713811E0,2.606843710E-1,2.227620602E0,2.371778011E0,3.264288716E0
5.384661988E0,4.024452567E-1,2.166969299E0,2.384077311E0,3.246774207E0
5.389610165E0,6.002773046E-1,2.157916069E0,2.455185413E0,3.323382316E0
5.394558342E0,8.107011318E-1,2.145701408E0,2.603762627E0,3.469992893E0
5.399506519E0,9.909672141E-1,2.204193115E0,2.818427801E0,3.712683474E0
5.404454696E0,1.205061316E0,2.273593903E0,3.072795391E0,4.007926337E0
5.409402873E0,1.397871971E0,2.322988033E0,3.294860840E0,4.266899038E0
5.414351051E0,1.535905480E0,2.407350540E0,3.499204874E0,4.516500528E0
5.419299228E0,1.674071789E0,2.500379086E0,3.645199537E0,4.726721019E0
5.424247405E0,1.764544129E0,2.616551399E0,3.814031363E0,4.950433561E0
5.429195582E0,1.786179066E0,2.700842381E0,3.943580389E0,5.102627902E0
5.434143811E0,1.813563585E0,2.813136578E0,3.995585442E0,5.212240718E0
5.439091884E0,1.849308491E0,2.917463779E0,3.999011993E0,5.284281760E0
5.444040113E0,1.874265552E0,3.080719948E0,3.994716167E0,5.381585641E0
5.448988342E0,1.910189033E0,3.254970074E0,3.961283684E0,5.471327147E0
5.453936519E0,1.949575901E0,3.509630680E0,3.927258492E0,5.616200937E0
5.458884696E0,1.937400699E0,3.734701633E0,3.952229977E0,5.772489891E0
5.463832873E0,1.892722487E0,4.028387547E0,3.947360039E0,5.949113876E0
5.468781051E0,1.846981645E0,4.225813389E0,3.764025688E0,5.952875723E0
5.473729228E0,1.745335579E0,4.427884102E0,3.631243467E0,5.986508417E0
5.478677405E0,1.642892599E0,4.572519779E0,3.646680593E0,6.074974286E0
5.483625582E0,1.553816319E0,4.688667297E0,3.642258167E0,6.137099538E0
5.488573759E0,1.516817927E0,4.793113708E0,3.553214073E0,6.156298068E0
5.493521936E0,1.564121246E0,4.866925716E0,3.441189289E0,6.162404151E0
5.498470113E0,1.590835094E0,4.871940613E0,3.367970228E0,6.132681721E0
5.503418290E0,1.634340286E0,4.786409378E0,3.266820908E0,6.021038262E0
5.508366467E0,1.704022646E0,4.679642200E0,3.152043819E0,5.893905712E0
5.513314644E0,1.778160334E0,4.484699726E0,2.968265533E0,5.664361048E0
5.518262821E0,1.913557887E0,4.199085712E0,2.727520943E0,5.360354009E0
5.523210998E0,2.179252863E0,3.915954113E0,2.417886257E0,5.092152159E0
5.528159176E0,2.450137615E0,3.579826832E0,1.980234861E0,4.768612438E0
5.533107353E0,2.623443604E0,3.135216713E0,1.379623413E0,4.314556865E0
5.538055530E0,2.671995401E0,2.633927822E0,6.946170330E-1,3.815708063E0
5.543003707E0,2.590061903E0,2.010695934E0,-1.829426289E-1,3.284019916E0
5.547951884E0,2.479566097E0,1.197572231E0,-1.211573601E0,3.008377947E0
5.552900061E0,2.339342833E0,1.843500137E-1,-2.347705364E0,3.319371973E0
5.557848238E0,2.178546667E0,-9.820957184E-1,-3.594501257E0,4.316366165E0
5.562796415E0,1.926445723E0,-2.250610352E0,-5.077638626E0,5.878677921E0
5.567744592E0,1.679188013E0,-3.655615807E0,-6.653528214E0,7.775129388E0
5.572692769E0,1.363547683E0,-5.202965736E0,-8.213792801E0,9.818172280E0
5.577640946E0,9.784108400E-1,-7.072040558E0,-9.823280334E0,1.214363545E1
5.582589123E0,8.809345961E-1,-9.125796318E0,-1.126262856E1,1.452250000E1
5.587537301E0,6.512542367E-1,-1.094292831E1,-1.243024445E1,1.657355693E1
5.592485478E0,2.005582809E0,-1.258850861E1,-1.352843094E1,1.858793574E1
5.597433655E0,2.756572247E0,-1.351583195E1,-1.465663242E1,2.012692917E1
5.602381832E0,2.890955687E0,-1.335964680E1,-1.556325722E1,2.071358884E1
5.607330009E0,2.257995129E0,-1.198530674E1,-1.535725403E1,1.961100127E1
5.612278186E0,1.571682453E0,-9.728841782E0,-1.380563450E1,1.696219597E1
5.617226363E0,1.128947496E0,-7.040599823E0,-1.102823639E1,1.313265267E1
5.622174540E0,9.368845820E-1,-4.174818993E0,-7.738214970E0,8.842332116E0
5.627122717E0,8.575345874E-1,-1.445415497E0,-4.568227291E0,4.867575589E0
5.632070894E0,9.596226215E-1,1.082623959E0,-1.410960674E0,2.020831570E0
5.637019071E0,1.065431714E0,3.358785152E0,1.828647852E0,3.969954081E0
5.641967248E0,1.217321992E0,5.389161587E0,4.809621334E0,7.325120669E0
5.646915426E0,1.305403829E0,7.093640804E0,7.365875244E0,1.030921613E1
5.651863603E0,1.331476092E0,8.378794670E0,8.863129616E0,1.226915218E1
5.656811780E0,1.242793202E0,9.112762451E0,9.134489059E0,1.296247912E1
5.661759957E0,1.064266443E0,9.000574112E0,8.426000595E0,1.237499428E1
5.666708134E0,4.911822975E-1,7.804664135E0,6.764419556E0,1.033979759E1
5.671656311E0,6.968963146E-2,5.844953537E0,4.867485523E0,7.606625652E0
5.676604488E0,-1.868065894E-1,3.674962044E0,3.244890213E0,4.906073299E0
5.681552665E0,-3.427437544E-1,1.480178833E0,1.818043947E0,2.369321939E0
5.686500894E0,-5.589584708E-1,-7.134847641E-1,9.300942421E-1,1.298680245E0
5.691448967E0,-9.943472743E-1,-2.912780762E0,5.607726574E-1,3.128495524E0
5.696397248E0,-1.581773520E0,-5.057212830E0,6.820502281E-1,5.342527640E0
5.701345321E0,-2.255135536E0,-7.081058502E0,1.161659956E0,7.521733820E0
5.706293551E0,-2.736016750E0,-8.816238403E0,1.911073089E0,9.426772915E0
5.711241728E0,-2.766001701E0,-1.010451508E1,2.858156204E0,1.085914579E1
5.716189957E0,-2.357576847E0,-1.081975651E1,4.008810997E0,1.177692087E1
5.721138134E0,-1.683324814E0,-1.112965107E1,4.802049637E0,1.223774473E1
5.726086311E0,-8.612837195E-1,-1.120306396E1,4.401812553E0,1.206757663E1
5.731034384E0,3.560761511E-1,-1.097424507E1,2.810491085E0,1.133400658E1
5.735982665E0,2.138393879E0,-1.003563690E1,1.514656305E0,1.037212226E1
5.740930738E0,3.732503414E0,-8.173849106E0,1.460050344E0,9.103578305E0
5.745879019E0,4.216007233E0,-5.616715431E0,2.069491148E0,7.321543747E0
5.750827092E0,4.224908352E0,-2.947764397E0,2.457781315E0,5.707876533E0
5.755775373E0,4.391870499E0,-5.515222549E-1,2.621321201E0,5.144319986E0
5.760723551E0,4.718990803E0,1.609961033E0,3.187871695E0,5.918054973E0
5.765671728E0,5.169768333E0,3.567863941E0,3.788919926E0,7.335671198E0
5.770619905E0,5.559828758E0,5.369521618E0,4.319854259E0,8.854637149E0
5.775568082E0,5.555017471E0,6.658236027E0,5.036871433E0,1.002798085E1
5.780516259E0,4.779535770E0,7.170562744E0,5.771935463E0,1.037189333E1
5.785464436E0,3.433063745E0,7.052022934E0,5.978179932E0,9.861824853E0
5.790412509E0,1.850548267E0,6.460668087E0,5.614743233E0,8.757288541E0
5.795360790E0,7.303327322E-3,5.487575531E0,4.867595196E0,7.335326955E0
5.800308967E0,-1.791318893E0,4.149878025E0,3.976577997E0,6.020256105E0
5.805257144E0,-3.390154123E0,2.661041260E0,3.180197001E0,5.356112259E0
5.810205321E0,-4.791397095E0,1.176733017E0,2.618812561E0,5.585728775E0
5.815153498E0,-5.999816895E0,-1.662330627E-1,2.447793484E0,6.482062105E0
5.820101676E0,-6.937785625E0,-1.351521492E0,2.494411469E0,7.495436498E0
5.825049853E0,-7.464474678E0,-2.439518929E0,2.706444979E0,8.306291546E0
5.829998030E0,-7.155127048E0,-3.074640274E0,2.752803326E0,8.259974700E0
5.834946207E0,-6.662964344E0,-3.430161476E0,2.755070210E0,7.984454487E0
5.839894384E0,-6.455613136E0,-3.984543800E0,3.803074360E0,8.486159605E0
5.844842561E0,-6.629157543E0,-4.716559410E0,4.579477787E0,9.336127634E0
5.849790738E0,-6.440245152E0,-5.035621643E0,5.075955391E0,9.622866832E0
5.854738915E0,-5.444256306E0,-5.035939217E0,5.029064655E0,8.960586020E0
5.859687092E0,-4.058740139E0,-4.748849869E0,4.867263794E0,7.919293114E0
5.864635269E0,-2.630369663E0,-4.177163124E0,4.669888496E0,6.795247965E0
5.869583446E0,-1.195636034E0,-3.371140480E0,4.414563179E0,5.681769242E0
5.874531623E0,2.309207916E-1,-2.519621849E0,4.033068180E0,4.761035352E0
5.879479801E0,1.548743844E0,-1.614795685E0,3.710173368E0,4.332615725E0
5.884427978E0,2.885199547E0,-4.529666901E-1,3.135995388E0,4.285326396E0
5.889376155E0,3.732869387E0,7.003021240E-1,2.250621557E0,4.414751898E0
5.894324332E0,4.075220108E0,1.641979218E0,1.352615595E0,4.597073376E0
5.899272509E0,4.200410843E0,2.424764633E0,5.691457987E-1,4.883324863E0
5.904220686E0,4.413003922E0,3.003109455E0,-2.756544352E-1,5.345021551E0
5.909168863E0,4.481860161E0,3.254855156E0,-1.483275890E0,5.734218339E0
5.914117040E0,4.557930946E0,3.342875481E0,-2.638584614E0,6.237922712E0
5.919065217E0,4.631268501E0,3.518676281E0,-3.159036636E0,6.618855125E0
5.924013394E0,4.589533806E0,3.748650074E0,-2.463971138E0,6.417737273E0
5.928961571E0,4.262048244E0,3.693263531E0,-1.892843962E0,5.948790550E0
5.933909748E0,3.902409077E0,3.386291981E0,-9.180374146E-1,5.247719760E0
5.938857926E0,3.636466980E0,3.081613064E0,-5.883042812E-1,4.802742248E0
5.943806103E0,3.316256285E0,2.772089958E0,-4.912181497E-1,4.350095833E0
5.948754176E0,2.867576599E0,2.388654232E0,3.467828035E-2,3.732273727E0
5.953702457E0,2.353195906E0,1.960120678E0,8.644416928E-1,3.182273320E0
5.958650634E0,1.910525680E0,1.541472435E0,1.322978377E0,2.788640785E0
5.963598707E0,1.094172478E0,9.698638916E-1,1.742841721E0,2.274938822E0
5.968546936E0,5.839750767E-1,5.420045853E-1,1.798505545E0,1.967083642E0
5.973495165E0,1.723194122E-1,1.716079712E-1,1.565682173E0,1.584456986E0
5.978443238E0,-1.770342588E-1,-1.933097839E-2,1.505018353E0,1.515518083E0
5.983391519E0,-5.547494888E-1,-9.083366394E-2,1.555721402E0,1.654166506E0
5.988339592E0,-8.747719526E-1,-5.738449097E-2,1.537646532E0,1.769993166E0
5.993287821E0,-1.149111986E0,1.390171051E-2,1.271392703E0,1.713794334E0
5.998235998E0,-1.344619632E0,9.907722473E-2,1.015586495E0,1.687967470E0
6.003184176E0,-1.475332379E0,1.669178009E-1,7.563417554E-1,1.666289300E0
6.008132353E0,-1.546369791E0,3.035449982E-1,5.399204493E-1,1.665807068E0
6.013080530E0,-1.519889832E0,5.017547607E-1,3.429736495E-1,1.636903743E0
6.018028707E0,-1.396379232E0,7.113447189E-1,8.527359366E-2,1.569445079E0
6.022976884E0,-1.157193661E0,9.491434097E-1,-1.156201065E-1,1.501112384E0
6.027925061E0,-9.102399349E-1,1.126709938E0,-2.960516810E-1,1.478397315E0
6.032873238E0,-6.537803411E-1,1.332721710E0,-2.846175432E-1,1.511483720E0
6.037821415E0,-4.520233870E-1,1.464214325E0,-2.217133939E-1,1.548355760E0
6.042769592E0,-2.621079683E-1,1.552330017E0,-2.141162157E-1,1.588796659E0
6.047717769E0,-1.289758682E-1,1.628044605E0,-2.165326178E-1,1.647437521E0
6.052665946E0,-1.144849062E-1,1.648250580E0,-4.197413325E-1,1.704705122E0
6.057614123E0,-1.945867538E-1,1.624990463E0,-8.965935707E-1,1.866102366E0
6.062562301E0,-3.993649483E-1,1.474576950E0,-1.541905880E0,2.170562896E0
6.067510478E0,-6.667809486E-1,1.283410072E0,-2.239681959E0,2.666067052E0
6.072458655E0,-8.793815374E-1,1.111368179E0,-2.841074944E0,3.174926448E0
6.077406832E0,-1.033178687E0,9.059820175E-1,-3.349024057E0,3.619975656E0
6.082355009E0,-1.049708247E0,7.127656937E-1,-3.680672884E0,3.893234544E0
6.087303186E0,-9.009585381E-1,5.938014984E-1,-3.723275185E0,3.876480957E0
6.092251363E0,-6.467192173E-1,4.962186813E-1,-3.468614578E0,3.563111817E0
6.097199540E0,-2.397972345E-1,3.769636154E-1,-3.039323330E0,3.071984796E0
6.102147717E0,3.531758785E-1,3.100366592E-1,-2.414704561E0,2.460010986E0
6.107095894E0,9.355744123E-1,2.093753815E-1,-1.835764647E0,2.071030992E0
6.112044071E0,1.561817646E0,1.206216812E-1,-1.294468164E0,2.032110179E0
6.116992248E0,2.236849785E0,8.216857910E-2,-8.537284732E-1,2.395642073E0
6.121940426E0,2.785461426E0,5.829906464E-2,-7.494237423E-1,2.885104865E0
6.126888603E0,3.124159575E0,-4.160499573E-2,-9.819212556E-1,3.275098987E0
6.131836780E0,3.227232456E0,-2.436199188E-1,-1.564243078E0,3.594612135E0
6.136784957E0,2.894875050E0,-5.021152496E-1,-2.511874914E0,3.865480159E0
6.141733134E0,2.195149183E0,-7.690954208E-1,-3.570232630E0,4.261073660E0
6.146681311E0,1.256081462E0,-1.032663345E0,-4.490573406E0,4.775917058E0
6.151629488E0,1.389994621E-1,-1.259491920E0,-5.046027660E0,5.202695061E0
6.156577665E0,-1.061889768E0,-1.442414284E0,-5.200859070E0,5.500645772E0
6.161525842E0,-2.210935593E0,-1.548166275E0,-4.948336124E0,5.636584552E0
6.166474019E0,-3.111544847E0,-1.653172493E0,-4.407652855E0,5.642879967E0
6.171422196E0,-3.698105812E0,-1.779130936E0,-3.603386402E0,5.461289870E0
6.176370373E0,-3.986941576E0,-1.993040085E0,-2.681892157E0,5.201966691E0
6.181318551E0,-4.039467812E0,-2.173258781E0,-1.943659663E0,4.981783498E0
6.186266728E0,-3.927577019E0,-2.269798279E0,-1.458758593E0,4.765062654E0
6.191214905E0,-3.652570724E0,-2.273152351E0,-1.318360806E0,4.499618842E0
6.196163082E0,-3.390263319E0,-2.121324539E0,-1.532616019E0,4.282851274E0
6.201111259E0,-3.139537334E0,-1.940862656E0,-2.014132977E0,4.204803702E0
6.206059436E0,-2.958694935E0,-1.801085472E0,-2.597948551E0,4.329794599E0
6.211007613E0,-2.748132229E0,-1.759208679E0,-3.016171694E0,4.443460094E0
6.215955790E0,-2.496429920E0,-1.815080643E0,-3.233328819E0,4.470021850E0
6.220903967E0,-2.184772968E0,-1.982971191E0,-3.352849483E0,4.466207264E0
6.225852144E0,-1.715808153E0,-2.092897415E0,-3.255359411E0,4.233388962E0
6.230800321E0,-1.113252521E0,-2.266643524E0,-3.317562103E0,4.169319171E0
6.235748498E0,-6.065384150E-1,-2.477601051E0,-3.516417265E0,4.344143897E0
6.240696676E0,-1.447467804E-1,-2.637077332E0,-3.747570515E0,4.584693364E0
6.245644853E0,1.292868853E-1,-2.814393044E0,-3.921481133E0,4.828616528E0
6.250593030E0,2.305411100E-1,-2.987868309E0,-3.957986355E0,4.964490127E0
6.255541207E0,7.586526871E-2,-3.267591476E0,-3.950223207E0,5.127101811E0
6.260489384E0,-1.654952765E-1,-3.684738159E0,-3.827687740E0,5.315625779E0
6.265437561E0,-3.886833191E-1,-4.248878479E0,-3.648532391E0,5.613896299E0
6.270385738E0,-5.484126806E-1,-4.773484230E0,-3.327072144E0,5.844340614E0
6.275333915E0,-7.051781416E-1,-5.014603615E0,-3.348063469E0,6.070671678E0
6.280282092E0,-8.274927139E-1,-5.068257332E0,-3.169416428E0,6.034664619E0
6.285230269E0,-9.702593088E-1,-4.937039375E0,-2.818340778E0,5.767044795E0
6.290178446E0,-1.197414160E0,-4.697988510E0,-2.277623415E0,5.356534806E0
6.295126623E0,-1.515228391E0,-4.595551491E0,-1.621188879E0,5.103260131E0
6.300074801E0,-1.782581210E0,-4.481997490E0,-9.593575001E-1,4.917953241E0
6.305022873E0,-1.754046917E0,-4.154470444E0,-2.867885828E-1,4.518689295E0
6.309971103E0,-1.375794888E0,-3.666034698E0,1.278787255E-1,3.917776787E0
6.314919280E0,-7.741657495E-1,-3.181773186E0,2.210153341E-1,3.282051339E0
6.319867457E0,8.687794209E-2,-2.651284218E0,1.713319421E-1,2.658234454E0
6.324815634E0,9.378200769E-1,-2.196630478E0,2.373624742E-1,2.400215177E0
6.329763811E0,1.595860243E0,-1.999609947E0,3.941133320E-1,2.588539197E0
6.334711988E0,2.246887684E0,-1.765969276E0,7.045181394E-1,2.943381993E0
6.339660165E0,2.707524776E0,-1.656345367E0,1.149130583E0,3.375599426E0
6.344608342E0,3.017096519E0,-1.843034744E0,1.696047902E0,3.921253239E0
6.349556519E0,3.373286963E0,-2.304475784E0,2.276626587E0,4.676826081E0
6.354504696E0,3.583495140E0,-3.057255745E0,2.861048698E0,5.511247569E0
6.359452873E0,3.681446075E0,-3.974185944E0,3.328508615E0,6.358157652E0
6.364401051E0,3.657357216E0,-4.964464188E0,3.609367371E0,7.144907228E0
6.369349228E0,3.180578232E0,-6.142888069E0,3.777286291E0,7.881563515E0
6.374297405E0,2.695154428E0,-7.346632957E0,4.056594849E0,8.814353917E0
6.379245582E0,2.578402996E0,-8.163940430E0,4.139620781E0,9.509707964E0
6.384193759E0,2.560333967E0,-8.516270638E0,3.794554234E0,9.668547845E0
6.389141936E0,2.495320797E0,-8.599803925E0,3.314107895E0,9.548118378E0
6.394090113E0,2.406980991E0,-8.309234619E0,2.963366985E0,9.144314154E0
6.399038290E0,2.501825333E0,-7.694726944E0,2.670740128E0,8.520610633E0
6.403986467E0,2.615510225E0,-6.978724480E0,2.539997578E0,7.873695244E0
6.408934644E0,2.741171837E0,-6.204193115E0,2.517762423E0,7.234995706E0
6.413882821E0,2.896300316E0,-5.383097649E0,2.634252787E0,6.656243953E0
6.418830998E0,2.895613432E0,-4.563311577E0,2.890458107E0,6.128877366E0
6.423779176E0,2.891592264E0,-3.845285416E0,3.413711548E0,5.899233194E0
6.428727353E0,2.759517670E0,-3.214715958E0,4.163907051E0,5.940324771E0
6.433675530E0,2.456755877E0,-2.650299072E0,4.754220963E0,5.971796344E0
6.438623707E0,2.124322176E0,-2.133066177E0,5.051629066E0,5.880618356E0
6.443571884E0,1.845651746E0,-1.574744225E0,5.116838455E0,5.662886677E0
6.448520061E0,1.611025453E0,-1.073568344E0,5.064861774E0,5.422248315E0
6.453468238E0,1.466004610E0,-5.839643478E-1,5.002565384E0,5.245554718E0
6.458416415E0,1.362288594E0,-1.918354034E-1,5.012881279E0,5.198231406E0
6.463364592E0,1.242913961E0,2.416286469E-1,5.097453117E0,5.252356405E0
6.468312769E0,1.089496374E0,5.779304504E-1,5.180806160E0,5.325575877E0
6.473260946E0,9.433735609E-1,8.939275742E-1,5.233253479E0,5.392216813E0
6.478209123E0,8.150833845E-1,1.170685291E0,5.187073708E0,5.379646701E0
6.483157301E0,4.793368578E-1,1.295327187E0,4.954622269E0,5.143531682E0
6.488105478E0,1.695641279E-1,1.463824272E0,4.302148819E0,4.547528774E0
6.493053655E0,1.097263694E-1,1.613741875E0,3.433515549E0,3.795422472E0
6.498001832E0,1.016005874E-1,1.784192085E0,3.066960812E0,3.549635572E0
6.502950009E0,1.170551777E-1,2.042733192E0,2.990322590E0,3.623325821E0
6.507898186E0,2.132691741E-1,2.325674534E0,2.993727684E0,3.796926550E0
6.512846363E0,2.894570529E-1,2.607549191E0,3.159650803E0,4.106883412E0
6.517794540E0,3.835699856E-1,2.901073456E0,3.379467010E0,4.470363565E0
6.522742613E0,4.683962464E-1,3.128036499E0,3.602261543E0,4.793776758E0
6.527690894E0,5.461300611E-1,3.382005215E0,3.770761967E0,5.094591556E0
6.532639071E0,7.211781740E-1,3.641243458E0,3.850021362E0,5.348029204E0
6.537587144E0,8.792399764E-1,3.821598053E0,3.936870575E0,5.556673874E0
6.542535373E0,9.196708202E-1,3.918094158E0,3.950780392E0,5.639673923E0
6.547483551E0,9.171303511E-1,3.964104176E0,4.078884125E0,5.761297224E0
6.552431728E0,7.906493545E-1,3.993110657E0,4.328461170E0,5.941854527E0
6.557379905E0,6.410402656E-1,3.983499050E0,4.592112541E0,6.112830351E0
6.562328082E0,4.972838461E-1,3.971651077E0,4.897870541E0,6.325380568E0
6.567276259E0,4.263943136E-1,3.952778816E0,5.164548874E0,6.517579117E0
6.572224436E0,4.404650331E-1,4.003835201E0,5.384441853E0,6.724352744E0
6.577172613E0,4.108408093E-1,4.005342007E0,5.531155109E0,6.841434908E0
6.582120790E0,4.146254063E-1,3.984458447E0,5.608379841E0,6.892151172E0
6.587068967E0,4.499716461E-1,3.964787960E0,5.566665649E0,6.849071799E0
6.592017144E0,4.623765051E-1,3.934834957E0,5.534617901E0,6.806519924E0
6.596965321E0,5.289320946E-1,3.937688351E0,5.402258396E0,6.705934274E0
6.601913498E0,5.617154837E-1,3.913525105E0,5.265422344E0,6.584517863E0
6.606861676E0,5.305308104E-1,3.855036736E0,5.141187191E0,6.447835056E0
6.611809853E0,4.766462147E-1,3.819525242E0,5.024975777E0,6.329798278E0
6.616758030E0,4.818312824E-1,3.773356915E0,4.830882549E0,6.148805575E0
6.621706207E0,5.510135293E-1,3.800021172E0,4.616668701E0,6.004781987E0
6.626654384E0,6.176366210E-1,3.813015938E0,4.378040791E0,5.838476402E0
6.631602561E0,7.441202402E-1,3.872028828E0,4.129400253E0,5.709489349E0
6.636550738E0,8.965802193E-1,3.974237919E0,3.828118324E0,5.590430487E0
6.641498915E0,1.012218595E0,4.037944794E0,3.515218258E0,5.448517600E0
6.646447092E0,1.193034887E0,4.105639935E0,3.227324963E0,5.356793624E0
6.651395269E0,1.438010097E0,4.150583267E0,2.909871578E0,5.269019558E0
6.656343446E0,1.586582899E0,4.048124313E0,2.606314659E0,5.069263443E0
6.661291623E0,1.677034736E0,3.822206974E0,2.386010647E0,4.807781033E0
6.666239801E0,1.783338308E0,3.534860611E0,2.175034523E0,4.517334417E0
6.671187978E0,1.903070450E0,3.169562817E0,1.979952335E0,4.193806962E0
6.676136155E0,2.128896713E0,2.810080051E0,1.702352762E0,3.914940107E0
6.681084332E0,2.397794724E0,2.487552166E0,1.358487844E0,3.712522665E0
6.686032509E0,2.625249147E0,2.211522102E0,1.012454748E0,3.578802553E0
6.690980686E0,2.748052597E0,1.952953815E0,5.831012726E-1,3.421378198E0
6.695928863E0,2.751366854E0,1.579936028E0,1.164329052E-1,3.174865987E0
6.700877040E0,2.679543495E0,1.120611191E0,-3.933031559E-1,2.930940149E0
6.705825217E0,2.541334152E0,4.734735489E-1,-1.031491280E0,2.783259013E0
6.710773394E0,2.377164841E0,-4.131460190E-1,-2.046434402E0,3.163778765E0
6.715721571E0,2.134783268E0,-1.719878197E0,-3.484750986E0,4.433821157E0
6.720669644E0,2.034065247E0,-3.244482994E0,-5.081707001E0,6.363005372E0
6.725617873E0,2.191197872E0,-4.899464607E0,-6.697654724E0,8.582813079E0
6.730566051E0,2.607567549E0,-6.542080879E0,-8.275461197E0,1.086653067E1
6.735514228E0,3.213684320E0,-8.148676872E0,-9.655334473E0,1.303664778E1
6.740462405E0,3.831552982E0,-9.563395500E0,-1.068554592E1,1.484318778E1
6.745410582E0,4.964264870E0,-1.082396507E1,-1.181913090E1,1.677778295E1
6.750358759E0,5.929751396E0,-1.151398945E1,-1.310721016E1,1.842641752E1
6.755306936E0,6.394429684E0,-1.130822849E1,-1.436057186E1,1.936467885E1
6.760255113E0,5.618501663E0,-1.029774666E1,-1.502917576E1,1.906534215E1
6.765203290E0,4.357874870E0,-8.586527824E0,-1.420046997E1,1.715729818E1
6.770151467E0,3.398296833E0,-6.443871498E0,-1.163247395E1,1.372539075E1
6.775099644E0,2.783555508E0,-4.100561142E0,-8.658336639E0,9.976451088E0
6.780047821E0,2.332235098E0,-1.887934685E0,-5.787874222E0,6.519440615E0
6.784995998E0,1.724786162E0,-7.863998413E-3,-2.960734129E0,3.426499049E0
6.789944176E0,1.228408098E0,1.499057770E0,-1.685259342E-1,1.945394984E0
6.794892353E0,9.476632476E-1,2.615805149E0,2.583652496E0,3.796809507E0
6.799840530E0,1.038497448E0,3.485261440E0,5.035380840E0,6.211327110E0
6.804788707E0,1.084997654E0,3.933671474E0,7.073998451E0,8.166544267E0
6.809736884E0,1.089687347E0,3.991798401E0,8.398254395E0,9.362294049E0
6.814685061E0,1.224728823E0,3.623225689E0,9.046909332E0,9.822132841E0
6.819633238E0,1.407481670E0,2.958048344E0,8.871783257E0,9.457250806E0
6.824581415E0,1.652925730E0,1.956645489E0,7.925500870E0,8.329116944E0
6.829529592E0,1.966486454E0,6.178808212E-1,6.396624565E0,6.720539525E0
6.834477769E0,2.169324398E0,-1.006540298E0,4.853268623E0,5.410481314E0
6.839425946E0,2.195620060E0,-2.841026306E0,3.377559185E0,4.929511534E0
6.844374123E0,1.846701980E0,-5.036575317E0,2.150699615E0,5.779524891E0
6.849322301E0,1.226019382E0,-7.354176521E0,1.133681297E0,7.541370507E0
6.854270478E0,4.200374484E-1,-9.387247086E0,4.322378635E-1,9.406575832E0
6.859218655E0,-1.781311035E-1,-1.083458519E1,2.061972618E-1,1.083801108E1
6.864166728E0,-7.526542544E-1,-1.160515976E1,6.110670567E-1,1.164558390E1
6.869114957E0,-1.301451206E0,-1.153846550E1,1.831946850E0,1.175525374E1
6.874063134E0,-1.529383540E0,-1.047947693E1,3.480373859E0,1.114771066E1
6.879011311E0,-1.464464188E0,-8.620187759E0,5.113392830E0,1.012912033E1
6.883959488E0,-8.810359240E-1,-6.215065956E0,6.354740143E0,8.932300455E0
6.888907665E0,1.818271279E-1,-3.512981415E0,6.770735741E0,7.630004063E0
6.893855842E0,1.067145824E0,-7.697858810E-1,6.015378952E0,6.157609475E0
6.898804019E0,1.586140156E0,1.706680775E0,4.435801029E0,5.010482076E0
6.903752196E0,1.987832785E0,3.847433567E0,2.941950321E0,5.235388804E0
6.908700373E0,2.261065722E0,5.518877506E0,1.825678706E0,6.237269424E0
6.913648551E0,2.289735079E0,6.586987972E0,1.329329729E0,7.099184094E0
6.918596728E0,2.137010813E0,7.040552139E0,1.762155771E0,7.565803500E0
6.923544905E0,1.816070795E0,6.741584778E0,2.974290848E0,7.589037126E0
6.928493082E0,1.306067348E0,5.808224678E0,4.278029919E0,7.330949857E0
6.933441259E0,5.951307416E-1,4.595344067E0,5.297240257E0,7.037906083E0
6.938389436E0,-2.666142881E-1,3.194125652E0,6.008412361E0,6.809885532E0
6.943337613E0,-1.251645565E0,1.676909924E0,6.358247757E0,6.693725275E0
6.948285790E0,-2.259461403E0,1.707687378E-1,6.439547062E0,6.826572651E0
6.953233967E0,-3.212476969E0,-1.202303886E0,6.335621357E0,7.204556953E0
6.958182144E0,-3.915612221E0,-2.385640144E0,6.064173698E0,7.602466745E0
6.963130321E0,-4.409664631E0,-3.399286270E0,5.679207802E0,7.953218880E0
6.968078498E0,-4.544427395E0,-4.180133820E0,5.136053085E0,8.031461909E0
6.973026676E0,-4.266682625E0,-4.573980331E0,4.286933899E0,7.583118023E0
6.977974853E0,-4.007380486E0,-4.730271339E0,3.655694723E0,7.197129234E0
6.982923030E0,-3.888329506E0,-4.952814102E0,3.485526085E0,7.197108167E0
6.987871103E0,-3.777994156E0,-5.029309273E0,3.942921162E0,7.423868189E0
6.992819332E0,-3.357053995E0,-4.749342918E0,4.046739578E0,7.085349031E0
6.997767509E0,-2.465766191E0,-4.080372810E0,3.749320507E0,6.065216356E0
7.002715686E0,-1.366291761E0,-3.130271912E0,3.125450850E0,4.629665045E0
7.007663863E0,-2.080507278E-1,-2.068565369E0,2.382389545E0,3.161965802E0
7.012612040E0,9.104210138E-1,-9.425125122E-1,1.726423740E0,2.167425936E0
7.017560217E0,1.692863941E0,1.438999176E-2,1.288144469E0,2.127277972E0
7.022508394E0,2.136074543E0,7.644605637E-1,9.314279556E-1,2.452503301E0
7.027456571E0,2.434481621E0,1.315546989E0,5.776658058E-1,2.826846729E0
7.032404748E0,2.677522421E0,1.780309200E0,3.000112772E-1,3.229339550E0
7.037352926E0,2.832228899E0,2.144490719E0,1.000168324E-1,3.553922389E0
7.042301103E0,2.976414680E0,2.453752041E0,-2.258725166E-1,3.864060277E0
7.047249280E0,3.495285511E0,3.000276089E0,2.686741352E-1,4.614202337E0
7.052197457E0,3.521550655E0,3.471012115E0,1.279388785E0,5.107453356E0
7.057145634E0,3.351635933E0,3.528510094E0,2.886193752E0,5.658088130E0
7.062093811E0,3.107368946E0,3.370913506E0,3.473605871E0,5.751933360E0
7.067041988E0,2.696034670E0,3.110040665E0,3.259884357E0,5.250504919E0
7.071990165E0,2.319303274E0,2.795679569E0,2.411998749E0,4.360358918E0
7.076938342E0,1.961050630E0,2.441903114E0,1.588694096E0,3.511774384E0
7.081886415E0,1.607866287E0,2.146667480E0,8.654406071E-1,2.818226874E0
7.086834644E0,1.123854637E0,1.867020607E0,4.956918359E-1,2.234843527E0
7.091782821E0,6.172559261E-1,1.557732582E0,5.403941274E-1,1.760557153E0
7.096730998E0,2.937946320E-1,1.295767784E0,6.860260367E-1,1.495313064E0
7.101679176E0,-5.777430534E-2,1.007423401E0,1.147935987E0,1.528396810E0
7.106627353E0,-3.731746674E-1,7.290487289E-1,1.968142271E0,2.131749371E0
7.111575530E0,-4.778301716E-1,4.965248108E-1,2.500262499E0,2.593486288E0
7.116523707E0,-8.370566368E-1,2.211627960E-1,2.511407614E0,2.656453462E0
7.121471884E0,-1.146785736E0,-7.550716400E-2,2.284374714E0,2.557183351E0
7.126420061E0,-1.177825928E0,-3.431434631E-1,1.950154543E0,2.303936651E0
7.131368238E0,-1.114119530E0,-4.623813629E-1,1.492031455E0,1.918649711E0
7.136316415E0,-1.163656235E0,-5.100307465E-1,1.099552870E0,1.680251085E0
7.141264592E0,-1.287391186E0,-5.366144180E-1,8.521296382E-1,1.634458938E0
7.146212769E0,-1.279902458E0,-4.823560715E-1,4.752393663E-1,1.447988307E0
7.151160946E0,-1.177371502E0,-3.067140579E-1,1.638793647E-1,1.227653702E0
7.156109123E0,-1.063999414E0,-3.365230560E-2,-1.025460064E-1,1.069459169E0
7.161057301E0,-9.112462997E-1,3.391685486E-1,-2.206071466E-1,9.970319134E-1
7.166005478E0,-7.602908611E-1,6.515922546E-1,-3.072467446E-1,1.047384944E0
7.170953655E0,-5.641589165E-1,9.996213913E-1,-3.086177111E-1,1.188597114E0
7.175901728E0,-2.727069855E-1,1.388037682E0,-1.387747824E-1,1.421364185E0
7.180849957E0,-1.633021832E-1,1.649393082E0,-4.119288176E-2,1.657969238E0
7.185798134E0,-1.702351570E-1,1.752508163E0,-4.502420127E-2,1.761332464E0
7.190746311E0,-2.670552731E-1,1.695139408E0,-3.115148842E-1,1.744092215E0
7.195694488E0,-2.315239906E-1,1.618599415E0,-6.774066687E-1,1.769843840E0
7.200642665E0,-1.832387447E-1,1.508506775E0,-1.135170937E0,1.896782060E0
7.205590842E0,-2.488410473E-1,1.319487572E0,-1.712092876E0,2.175828885E0
7.210539019E0,-3.039534092E-1,1.159276009E0,-2.371959686E0,2.657536696E0
7.215487196E0,-2.634649277E-1,1.056820869E0,-2.901318550E0,3.099021369E0
7.220435373E0,-1.178829670E-1,9.977159500E-1,-3.266689062E0,3.417687952E0
7.225383551E0,-3.707647324E-3,9.962358475E-1,-3.521515608E0,3.659722911E0
7.230331728E0,1.222083569E-1,9.782123566E-1,-3.607986927E0,3.740241164E0
7.235279905E0,3.146569729E-1,9.819288254E-1,-3.548338413E0,3.695118229E0
7.240228082E0,4.827882051E-1,1.007470131E0,-3.322176933E0,3.504987888E0
7.245176259E0,6.007790565E-1,9.900846481E-1,-2.937502623E0,3.157550434E0
7.250124332E0,6.970850229E-1,9.108104706E-1,-2.597438335E0,2.839399435E0
7.255072613E0,8.407469988E-1,6.622142792E-1,-2.354511023E0,2.586330494E0
7.260020686E0,9.528646469E-1,2.874650955E-1,-2.170890093E0,2.388168966E0
7.264968915E0,1.062130094E0,-1.701831818E-1,-2.003005743E0,2.273568705E0
7.269917092E0,1.169161558E0,-6.606082916E-1,-1.949215889E0,2.367020204E0
7.274865269E0,1.243065476E0,-1.121510506E0,-2.025128126E0,2.627573314E0
7.279813446E0,1.288612604E0,-1.466896057E0,-2.250196695E0,2.979209904E0
7.284761623E0,1.264972448E0,-1.589039803E0,-2.577418566E0,3.281507162E0
7.289709801E0,1.086472273E0,-1.588698387E0,-3.006684780E0,3.569949290E0
7.294657978E0,6.036194563E-1,-1.540106773E0,-3.474328041E0,3.848017757E0
7.299606155E0,-1.343942881E-1,-1.548521996E0,-3.919548512E0,4.216496499E0
7.304554332E0,-1.015393496E0,-1.508929253E0,-4.074290752E0,4.461808666E0
7.309502509E0,-1.741531253E0,-1.579328537E0,-3.907701254E0,4.560409940E0
7.314450686E0,-2.162884235E0,-1.781463623E0,-3.456482887E0,4.449601646E0
7.319398863E0,-2.286406040E0,-2.038767815E0,-2.898379326E0,4.217206362E0
7.324347040E0,-2.119381428E0,-2.174328804E0,-2.344164848E0,3.835960404E0
7.329295217E0,-1.799303889E0,-2.114071846E0,-2.040726423E0,3.445483796E0
7.334243290E0,-1.466679692E0,-1.865222931E0,-2.050789118E0,3.136230525E0
7.339191571E0,-1.232906938E0,-1.465978622E0,-2.321295738E0,3.009579164E0
7.344139644E0,-1.160885453E0,-1.040786743E0,-2.579864502E0,3.014397606E0
7.349087873E0,-1.255399823E0,-8.142976761E-1,-2.649034023E0,3.042448139E0
7.354036051E0,-1.394034386E0,-7.960720062E-1,-2.479899168E0,2.954143258E0
7.358984228E0,-1.459145546E0,-9.523229599E-1,-2.129449129E0,2.751468397E0
7.363932405E0,-1.391090512E0,-1.249352455E0,-1.853787780E0,2.632972370E0
7.368880582E0,-1.158619165E0,-1.557838440E0,-1.764715195E0,2.623638446E0
7.373828759E0,-8.670952320E-1,-1.923116684E0,-1.890172958E0,2.832487552E0
7.378776936E0,-5.499380827E-1,-2.280587196E0,-2.139023542E0,3.174733307E0
7.383725113E0,-2.400248051E-1,-2.656570435E0,-2.345419407E0,3.551896757E0
7.388673290E0,-4.205536842E-2,-3.094091415E0,-2.645106792E0,4.070842700E0
7.393621467E0,1.845896244E-2,-3.645902634E0,-2.849392891E0,4.627308785E0
7.398569644E0,1.540287733E-1,-4.182708740E0,-2.920202255E0,5.103563312E0
7.403517821E0,4.314931631E-1,-4.711688995E0,-2.881241798E0,5.539652863E0
7.408465998E0,7.825838327E-1,-5.378444672E0,-3.066768646E0,6.240606899E0
7.413414071E0,1.323058128E0,-5.718719482E0,-3.134434223E0,6.654240244E0
7.418362301E0,1.885993600E0,-5.727767944E0,-3.002386570E0,6.736365682E0
7.423310478E0,2.250246525E0,-5.518115044E0,-2.765685081E0,6.569795813E0
7.428258655E0,2.284602165E0,-5.199986458E0,-2.444845676E0,6.183569891E0
7.433206832E0,2.018583775E0,-4.986367226E0,-2.086322308E0,5.769859559E0
7.438155009E0,1.606083870E0,-4.863037109E0,-1.680182338E0,5.389958072E0
7.443103186E0,1.262444496E0,-4.727231979E0,-1.137373924E0,5.023356222E0
7.448051363E0,1.147777081E0,-4.378493309E0,-4.182504416E-1,4.545715490E0
7.452999540E0,1.037545562E0,-4.209674835E0,2.936464548E-2,4.335749681E0
7.457947717E0,1.008003116E0,-4.029645920E0,3.882292509E-1,4.171910650E0
7.462895894E0,1.401658773E0,-3.604024887E0,7.631863952E-1,3.941585490E0
7.467844071E0,1.894540429E0,-3.299036980E0,7.293063998E-1,3.873605072E0
7.472792248E0,2.519867659E0,-2.884720802E0,6.228625774E-1,3.880632025E0
7.477740426E0,3.478487015E0,-2.217647552E0,5.782089829E-1,4.165592180E0
7.482688603E0,4.357970715E0,-1.616439819E0,6.189103127E-1,4.689118938E0
7.487636676E0,4.824056149E0,-1.222636223E0,9.444633126E-1,5.065408967E0
7.492584905E0,5.209056377E0,-1.082191467E0,1.290241361E0,5.474498103E0
7.497533082E0,5.277894497E0,-1.279106140E0,1.702617168E0,5.691325686E0
7.502481259E0,5.509497643E0,-1.621911049E0,2.107746124E0,6.117822607E0
7.507429436E0,5.697124004E0,-2.101163864E0,2.462745190E0,6.552650256E0
7.512377613E0,5.588789463E0,-2.924774170E0,2.886921406E0,6.937087776E0
7.517325790E0,5.269978523E0,-3.905710220E0,3.473751545E0,7.422546447E0
7.522273967E0,4.877963543E0,-4.906967163E0,4.110055923E0,8.047696239E0
7.527222144E0,4.516702652E0,-5.614888191E0,4.514776707E0,8.503574599E0
7.532170321E0,4.207741261E0,-6.019571304E0,4.588516235E0,8.659954183E0
7.537118498E0,3.875145674E0,-5.992062569E0,4.227341175E0,8.294093153E0
7.542066676E0,3.597331285E0,-5.647409439E0,3.459263325E0,7.536612535E0
7.547014853E0,3.200416088E0,-5.163123131E0,2.674030304E0,6.637088343E0
7.551963030E0,2.794198513E0,-4.625382423E0,2.092641115E0,5.794899027E0
7.556911207E0,2.489342690E0,-4.168457031E0,1.795495868E0,5.176549667E0
7.561859384E0,2.303887844E0,-3.861234665E0,1.875174046E0,4.871684517E0
7.566807457E0,2.234609127E0,-3.536115646E0,2.398947001E0,4.822088606E0
7.571755686E0,2.213965654E0,-3.089896202E0,3.036612272E0,4.865194400E0
7.576703863E0,2.431401730E0,-2.465286255E0,3.973072529E0,5.270166602E0
7.581652040E0,2.475693226E0,-1.839435577E0,4.943481445E0,5.826713395E0
7.586600217E0,2.208013058E0,-1.365658760E0,5.829205513E0,6.381221076E0
7.591548394E0,1.793136358E0,-1.024681091E0,6.465476036E0,6.787318300E0
7.596496571E0,1.343815804E0,-7.786350250E-1,6.837171555E0,7.011349961E0
7.601444748E0,9.269568324E-1,-5.796146393E-1,7.001635551E0,7.086473206E0
7.606392926E0,5.193821788E-1,-4.185333252E-1,6.845172405E0,6.877595019E0
7.611341103E0,1.547916532E-1,-2.738237381E-1,6.520570755E0,6.528153098E0
7.616289280E0,-1.128768921E-1,-9.556007385E-2,5.992161274E0,5.993986124E0
7.621237457E0,-4.162324667E-1,-4.640960693E-2,5.242795467E0,5.259496899E0
7.626185634E0,-8.027753830E-1,-4.045391083E-2,4.239315510E0,4.314844241E0
7.631133811E0,-1.055331826E0,-8.689498901E-2,3.155401707E0,3.328338314E0
7.636081884E0,-1.317824602E0,-1.974353790E-1,2.351563692E0,2.702867775E0
7.641030113E0,-1.469479680E0,-2.637634277E-1,1.785470247E0,2.327411799E0
7.645978290E0,-1.555034876E0,-2.781066895E-1,1.589615822E0,2.241061190E0
7.650926467E0,-1.619977355E0,-1.798801422E-1,1.630656004E0,2.305585067E0
7.655874644E0,-1.612867951E0,-4.279994965E-2,1.888673306E0,2.484001151E0
7.660822821E0,-1.534888983E0,1.862697601E-1,2.293487549E0,2.765983686E0
7.665770998E0,-1.417162180E0,4.912471771E-1,2.741181850E0,3.124700045E0
7.670719176E0,-1.266410589E0,8.577804565E-1,3.126849413E0,3.480915159E0
7.675667353E0,-1.082058430E0,1.336469650E0,3.473998070E0,3.876295159E0
7.680615530E0,-9.315426350E-1,1.738084316E0,3.785737991E0,4.268550212E0
7.685563707E0,-8.893130422E-1,1.998098850E0,3.940503597E0,4.506755518E0
7.690511884E0,-8.825601339E-1,2.200091839E0,4.027661324E0,4.673475391E0
7.695460061E0,-9.273154140E-1,2.348698616E0,4.055015087E0,4.776970423E0
7.700408238E0,-9.602055550E-1,2.453284264E0,4.102183819E0,4.875295937E0
7.705356311E0,-1.002154350E0,2.549969673E0,4.209605694E0,5.022692383E0
7.710304540E0,-1.021306992E0,2.676928043E0,4.332117081E0,5.193866587E0
7.715252717E0,-1.036411524E0,2.748607159E0,4.485642433E0,5.361900614E0
7.720200894E0,-9.750444889E-1,2.891963959E0,4.641397953E0,5.554884540E0
7.725149071E0,-8.775038719E-1,3.021434307E0,4.779428005E0,5.722063472E0
7.730097248E0,-6.572645307E-1,3.220981598E0,4.861278057E0,5.868453243E0
7.735045426E0,-3.687730134E-1,3.460206509E0,4.809428692E0,5.936297412E0
7.739993603E0,-5.747166276E-2,3.696007252E0,4.686378956E0,5.968745288E0
7.744941780E0,2.367075682E-1,3.933642864E0,4.534646034E0,6.007710988E0
7.749889957E0,4.830992818E-1,4.110988140E0,4.337548733E0,5.995659881E0
7.754838134E0,7.464514971E-1,4.278109074E0,4.081207275E0,5.959501649E0
7.759786311E0,9.977027178E-1,4.386690140E0,3.819071054E0,5.901166394E0
7.764734488E0,1.231826782E0,4.465077400E0,3.527852058E0,5.822375250E0
7.769682665E0,1.376897693E0,4.484391212E0,3.293926239E0,5.731977135E0
7.774630738E0,1.506704211E0,4.446479321E0,3.089419127E0,5.620128688E0
7.779578967E0,1.489514351E0,4.349048138E0,2.899729252E0,5.435191113E0
7.784527144E0,1.438012600E0,4.210779190E0,2.704108953E0,5.206798139E0
7.789475321E0,1.354327440E0,4.071974754E0,2.500695467E0,4.966755383E0
7.794423498E0,1.279607296E0,3.920572758E0,2.289605141E0,4.717051757E0
7.799371676E0,1.216012001E0,3.784909248E0,2.068957090E0,4.481607596E0
7.804319853E0,1.190110922E0,3.643424988E0,1.843451738E0,4.253142833E0
7.809268030E0,1.170568705E0,3.519793987E0,1.608574629E0,4.043104394E0
7.814216207E0,1.147621870E0,3.487850666E0,1.422045708E0,3.937556631E0
7.819164384E0,1.130321741E0,3.401678562E0,1.362341404E0,3.834712294E0
7.824112561E0,1.144335508E0,3.330392361E0,1.247909069E0,3.736080041E0
7.829060738E0,1.239317179E0,3.223649502E0,1.145759821E0,3.638761980E0
7.834008915E0,1.386531353E0,3.048059464E0,9.527990818E-1,3.481517166E0
7.838956988E0,1.542937517E0,2.848978519E0,6.788668633E-1,3.310316451E0
7.843905269E0,1.725433588E0,2.564181805E0,3.455889225E-1,3.109916574E0
7.848853342E0,1.871841311E0,2.286929131E0,-8.759307861E-2,2.956604013E0
7.853801571E0,1.988699436E0,1.964432240E0,-5.486705303E-1,2.848676679E0
7.858749748E0,2.059337854E0,1.634520054E0,-1.079645872E0,2.842211008E0
7.863697926E0,2.101302147E0,1.179308891E0,-1.769638777E0,2.989625658E0
7.868646103E0,2.185496092E0,6.341886520E-1,-2.609568119E0,3.462431831E0
7.873594280E0,2.320025921E0,-2.776908875E-2,-3.568352461E0,4.256340057E0
7.878542457E0,2.472132206E0,-8.215370178E-1,-4.681522369E0,5.357519240E0
7.883490634E0,2.594705343E0,-1.814762115E0,-5.900377274E0,6.696290714E0
7.888438811E0,2.625753164E0,-3.161274910E0,-7.354903221E0,8.425131461E0
7.893386988E0,2.460802078E0,-4.813793182E0,-9.110495567E0,1.059383222E1
7.898335165E0,2.158467531E0,-6.670301437E0,-1.068216896E1,1.277734859E1
7.903283342E0,1.714281440E0,-8.525635719E0,-1.212056923E1,1.491755421E1
7.908231415E0,1.715843916E0,-1.021553612E1,-1.328819656E1,1.684866364E1
7.913179644E0,1.683681846E0,-1.131436729E1,-1.385985279E1,1.797067643E1
7.918127821E0,2.064345598E0,-1.133405209E1,-1.326712704E1,1.757096808E1
7.923075998E0,2.354289532E0,-1.010656261E1,-1.146346283E1,1.546273802E1
7.928024176E0,2.104240656E0,-8.113492966E0,-9.200076103E0,1.244580239E1
7.932972353E0,1.943826556E0,-5.807550430E0,-6.919082165E0,9.240119138E0
7.937920530E0,1.994498134E0,-3.414295197E0,-4.627081394E0,6.086486402E0
7.942868707E0,2.247367620E0,-1.032325745E0,-2.533372879E0,3.540386393E0
7.947816884E0,2.580255985E0,1.160260201E0,-5.104718208E-1,2.874805413E0
7.952765061E0,3.153598785E0,3.181886196E0,1.398739338E0,4.693192602E0
7.957713238E0,3.758903027E0,4.899714947E0,3.126298428E0,6.921726691E0
7.962661415E0,4.296396255E0,6.202567101E0,4.518223286E0,8.794612048E0
7.967609592E0,4.628238201E0,7.243708611E0,5.717006207E0,1.032356834E1
7.972557665E0,4.590560436E0,8.015928268E0,6.530172825E0,1.131244926E1
7.977505894E0,4.178231239E0,8.403358459E0,7.006880283E0,1.171197767E1
7.982454071E0,3.420087337E0,8.324095726E0,6.917739868E0,1.135088948E1
7.987402248E0,2.873438597E0,7.889101028E0,6.351337910E0,1.052777553E1
7.992350426E0,2.664040565E0,7.142885208E0,5.531056404E0,9.418625493E0
7.997298603E0,2.703526020E0,6.101540565E0,4.684432030E0,8.153634383E0
8.002246780E0,2.968110561E0,4.877883434E0,4.081672668E0,7.018794688E0
8.007194957E0,3.399751663E0,3.504211903E0,4.040982723E0,6.337771990E0
8.012143134E0,3.741446018E0,1.945992470E0,4.807721615E0,6.395271075E0
8.017091311E0,3.983648539E0,2.421455383E-1,6.104372501E0,7.293247135E0
8.022039488E0,4.093712807E0,-1.758084297E0,7.272424698E0,8.528628608E0
8.026987665E0,4.359154701E0,-4.244712830E0,8.072658539E0,1.010878987E1
8.031935842E0,4.499857903E0,-7.287499428E0,8.791076660E0,1.227352427E1
8.036883915E0,4.718202114E0,-1.027545643E1,9.206334114E0,1.458091300E1
8.041832144E0,5.063877106E0,-1.310961533E1,8.467887878E0,1.640761989E1
8.046780321E0,4.784036636E0,-1.624830246E1,5.471114635E0,1.779964704E1
8.051728498E0,3.160631418E0,-2.035795593E1,-1.619995117E0,2.066543842E1
8.056676676E0,1.251209736E0,-2.349553490E1,-7.272812366E0,2.462721027E1
8.061624853E0,-1.140349627E0,-2.290874290E1,-7.623774529E0,2.417090889E1
8.066573030E0,-3.412423611E0,-1.888316727E1,-5.657670975E0,2.000569623E1
8.071521207E0,-4.940532207E0,-1.325822449E1,-4.195089340E0,1.475764716E1
8.076469384E0,-5.477601051E0,-7.467267990E0,-3.390693665E0,9.862099576E0
8.081417561E0,-4.878968239E0,-2.250582695E0,-3.015246868E0,6.161263443E0
8.086365738E0,-3.818355560E0,2.367918968E0,-2.448626518E0,5.116898597E0
8.091313811E0,-2.754438877E0,6.159522533E0,-1.028109312E0,6.825222350E0
8.096262040E0,-1.656354189E0,9.055339813E0,1.314624071E0,9.298974394E0
8.101210217E0,-5.200845003E-1,1.107420254E1,4.228896141E0,1.186558099E1
8.106158394E0,7.966803312E-1,1.233601189E1,6.852821350E0,1.413410943E1
8.111106571E0,2.007576227E0,1.268440437E1,9.074457169E0,1.572482908E1
8.116054748E0,2.880573511E0,1.237064362E1,1.056709290E1,1.652252945E1
8.121002926E0,3.180257082E0,1.153911591E1,1.148650742E1,1.658930630E1
8.125951103E0,3.052119732E0,1.003006172E1,1.193252468E1,1.588403973E1
8.130899280E0,2.399951220E0,7.714013577E0,1.166992664E1,1.419341253E1
8.135847457E0,1.184985995E0,4.798224926E0,1.050307846E1,1.160783405E1
8.140795634E0,6.927077472E-2,2.019326210E0,8.686552048E0,8.918445115E0
8.145743811E0,-1.050333381E0,-1.082551003E0,6.691184044E0,6.859086003E0
8.150691884E0,-1.879255295E0,-3.631936073E0,4.938331604E0,6.411683019E0
8.155640113E0,-2.651198864E0,-5.630667686E0,3.776787519E0,7.279931180E0
8.160588290E0,-3.380563736E0,-7.352532387E0,2.748152733E0,8.546361045E0
8.165536467E0,-4.037192822E0,-8.597160339E0,1.663081288E0,9.642402769E0
8.170484644E0,-4.586464405E0,-9.119430542E0,5.300056934E-1,1.022157401E1
8.175432821E0,-4.731297970E0,-8.925240517E0,-2.969706059E-1,1.010610164E1
8.180380998E0,-4.109426975E0,-7.912716866E0,-6.081979275E-1,8.936911266E0
8.185329176E0,-2.881186247E0,-6.271581650E0,-3.330936432E-1,6.909770036E0
8.190277353E0,-1.451408982E0,-4.358413696E0,9.766101837E-2,4.594768292E0
8.195225530E0,-1.194871664E-1,-2.577325821E0,5.633014441E-1,2.640869949E0
8.200173707E0,9.453776479E-1,-1.106985092E0,1.152750134E0,1.856875807E0
8.205121780E0,1.794697165E0,1.464424133E-1,1.731295347E0,2.497952537E0
8.210070009E0,2.512560844E0,1.226607323E0,2.197682142E0,3.556309087E0
8.215018186E0,3.018092632E0,2.126169682E0,2.314501762E0,4.357338529E0
8.219966363E0,3.298288822E0,2.802297115E0,2.102136850E0,4.811502636E0
8.224914540E0,3.394017220E0,3.271721363E0,1.773170948E0,5.036630697E0
8.229862717E0,3.371979237E0,3.584868431E0,1.469779730E0,5.136319509E0
8.234810894E0,3.263355732E0,3.803977013E0,1.377382040E0,5.197779625E0
8.239759071E0,3.253175020E0,3.917024612E0,1.044887900E0,5.197886133E0
8.244707248E0,3.067219257E0,3.835450649E0,7.203917503E-1,4.963615611E0
8.249655426E0,2.761559963E0,3.643108368E0,5.263696313E-1,4.601686321E0
8.254603603E0,2.365828514E0,3.390175819E0,1.915682554E-1,4.138494296E0
8.259551676E0,1.972869635E0,3.007632256E0,-2.027574182E-1,3.602662481E0
8.264499905E0,1.509831071E0,2.744748116E0,-3.181818724E-1,3.148725422E0
8.269448082E0,1.038311243E0,2.539572239E0,1.158409715E-1,2.746076569E0
8.274396259E0,4.177243710E-1,2.176925659E0,5.067203045E-1,2.273821550E0
8.279344436E0,-1.349800825E-1,1.781621933E0,9.965972304E-1,2.045874477E0
8.284292613E0,-5.114120245E-1,1.451220512E0,1.720845461E0,2.308439372E0
8.289240790E0,-1.380338669E0,6.091699600E-1,1.519598961E0,2.141402317E0
8.294188967E0,-1.712784410E0,-6.726932526E-2,1.732901812E0,2.437438058E0
8.299137144E0,-1.791366339E0,-6.142730713E-1,1.741517901E0,2.572782417E0
8.304085321E0,-1.746038198E0,-9.936923981E-1,1.584259272E0,2.558505699E0
8.309033394E0,-1.633671999E0,-1.215454102E0,1.323953629E0,2.428799309E0
8.313981623E0,-1.488586783E0,-1.272462845E0,9.567595720E-1,2.179550683E0
