"Time (s)","Linear Acceleration x (m/s^2)","Linear Acceleration y (m/s^2)","Linear Acceleration z (m/s^2)","Absolute acceleration (m/s^2)"
1.009415120E-1,7.120193243E-1,1.079249382E-1,2.261915207E-1,7.548389991E-1
1.059887000E-1,6.673370600E-1,8.372497559E-2,2.665514946E-1,7.234627305E-1
1.110358870E-1,6.216700673E-1,9.295272827E-2,3.011112213E-1,6.969805233E-1
1.160830750E-1,5.543643236E-1,4.722309113E-2,3.325810432E-1,6.481974807E-1
1.211302620E-1,4.977546334E-1,1.508665085E-2,3.496866226E-1,6.084965211E-1
1.261774500E-1,4.278956056E-1,9.315490723E-3,3.669314384E-1,5.637553620E-1
1.312246370E-1,3.702111244E-1,-7.626533508E-3,3.542327881E-1,5.124405417E-1
1.362718250E-1,3.306453824E-1,-1.260566711E-2,3.127660751E-1,4.553107615E-1
1.413190120E-1,3.221737146E-1,5.603313446E-3,2.617750168E-1,4.151547410E-1
1.463662000E-1,3.276802301E-1,-2.162456512E-3,2.521982193E-1,4.135008480E-1
1.514133870E-1,3.143697977E-1,-2.394676208E-3,2.269344330E-1,3.877284373E-1
1.564605750E-1,3.334215283E-1,2.266073227E-2,2.075099945E-1,3.933749130E-1
1.615077620E-1,3.352478743E-1,4.733419418E-2,1.609277725E-1,3.748725265E-1
1.665549500E-1,3.501007557E-1,5.305814743E-2,1.389408112E-1,3.803817229E-1
1.716021370E-1,3.430203199E-1,4.519271851E-2,1.453657150E-1,3.752819111E-1
1.766493250E-1,3.169773221E-1,6.556701660E-2,1.772794724E-1,3.690551012E-1
1.816965120E-1,3.310844898E-1,3.877925873E-2,2.132549286E-1,3.957252012E-1
1.867437000E-1,3.239150643E-1,2.458524704E-2,2.204980850E-1,3.926127975E-1
1.917908870E-1,3.288003206E-1,-1.033306122E-2,2.186393738E-1,3.949931629E-1
1.968380750E-1,3.576213717E-1,-2.806138992E-2,2.102231979E-1,4.157815293E-1
2.018852620E-1,3.751713336E-1,-1.357078552E-3,2.305812836E-1,4.403670055E-1
2.069324500E-1,4.218860567E-1,3.170108795E-2,2.485065460E-1,4.906610920E-1
2.119796370E-1,4.573476315E-1,6.153488159E-2,2.758007050E-1,5.376052702E-1
2.170268250E-1,4.466933310E-1,7.424163818E-2,2.912034988E-1,5.383736904E-1
2.220740120E-1,3.913005590E-1,9.600162506E-2,2.809591293E-1,4.911929070E-1
2.271212000E-1,3.596090376E-1,1.055240631E-1,3.064355850E-1,4.841040752E-1
2.321683870E-1,2.949650884E-1,8.205127716E-2,3.083171844E-1,4.345069639E-1
2.372155750E-1,2.535546124E-1,9.178495407E-2,3.456344604E-1,4.383806560E-1
2.422627620E-1,2.278116047E-1,7.758951187E-2,3.943328857E-1,4.619704367E-1
2.473099500E-1,2.362170517E-1,9.132146835E-2,4.894809723E-1,5.511168010E-1
2.523571370E-1,2.403701842E-1,9.483575821E-2,5.575199127E-1,6.144917408E-1
2.574043250E-1,2.752692997E-1,1.139869690E-1,6.436758041E-1,7.092846800E-1
2.624515120E-1,3.233104348E-1,1.154541969E-1,6.514692307E-1,7.363908387E-1
2.674978660E-1,3.443238139E-1,1.139521599E-1,6.738224030E-1,7.652323923E-1
2.724460960E-1,3.882243037E-1,1.070151329E-1,6.635808945E-1,7.762151455E-1
2.773943250E-1,3.718276918E-1,9.479141235E-2,6.635713577E-1,7.665299675E-1
2.823425540E-1,3.879308105E-1,8.474016190E-2,6.428775787E-1,7.556207977E-1
2.872907830E-1,3.581314981E-1,1.308641434E-1,6.582870483E-1,7.607400554E-1
2.922390120E-1,3.271217644E-1,1.458892822E-1,5.464744568E-1,6.533962529E-1
2.971872410E-1,2.665239573E-1,9.724760056E-2,4.437656403E-1,5.267068056E-1
3.021354710E-1,1.702809930E-1,6.898641586E-2,3.449430466E-1,3.908202240E-1
3.070835960E-1,1.301399022E-1,5.853891373E-2,2.168340683E-1,2.595769862E-1
3.120318770E-1,1.241384596E-1,2.116870880E-2,1.115207672E-1,1.682122258E-1
3.169801060E-1,6.979821622E-2,2.340698242E-2,1.510124207E-1,1.680012768E-1
3.219283350E-1,2.424618602E-2,1.254272461E-2,1.918077469E-1,1.937405720E-1
3.268765640E-1,1.083159447E-2,1.287269592E-2,1.676626205E-1,1.685045521E-1
3.318247940E-1,3.830268234E-2,1.867485046E-2,2.002372742E-1,2.047213020E-1
3.367730230E-1,1.084391549E-1,7.750749588E-2,2.177305222E-1,2.552901144E-1
3.417212520E-1,1.447409689E-1,1.606049538E-1,2.367620468E-1,3.206246498E-1
3.466694810E-1,1.231115237E-1,1.549305916E-1,2.547435760E-1,3.225743713E-1
3.516177100E-1,1.978598386E-1,1.778249741E-1,3.682308197E-1,4.542732368E-1
3.565659390E-1,4.353098869E-1,2.291698456E-1,3.374605179E-1,5.965677807E-1
3.615141690E-1,5.403022766E-1,3.395195007E-1,3.319807053E-1,7.193130265E-1
3.664623980E-1,6.291162372E-1,4.517974854E-1,2.946825027E-1,8.287013847E-1
3.714106270E-1,8.523080349E-1,4.277167320E-1,2.326927185E-1,9.815887583E-1
3.763588560E-1,1.045937896E0,7.727766037E-2,2.576189041E-1,1.079965471E0
3.813070850E-1,9.300965071E-1,1.939935684E-1,9.612340927E-1,1.351548741E0
3.862553140E-1,6.508505344E-1,3.427329063E-1,9.864645004E-1,1.230522033E0
3.912035440E-1,3.129464388E-1,3.740644455E-1,1.513951302E0,1.590568523E0
3.961517730E-1,-5.240538716E-1,-3.177330494E-1,1.580200195E0,1.694880352E0
4.011000020E-1,-3.667209744E-1,-7.304618359E-1,1.316538811E0,1.549623569E0
4.060482310E-1,1.260360479E-1,-7.684659958E-1,1.272007942E0,1.491452070E0
4.109964600E-1,4.191048145E-1,-4.901130199E-1,1.160720825E0,1.327829979E0
4.159446890E-1,7.409728765E-1,3.496360779E-1,1.427523613E0,1.645937379E0
4.208929190E-1,9.511750340E-1,5.672695637E-1,1.178176880E0,1.616981590E0
4.258411480E-1,7.956727147E-1,-2.828621864E-2,6.755113602E-1,1.044131590E0
4.307893770E-1,5.485686064E-1,-7.151153088E-1,2.911128998E-1,9.471347006E-1
4.357376060E-1,3.217068911E-1,-1.061055660E0,-2.184772491E-2,1.108968783E0
4.406858350E-1,2.212984562E-1,-1.121281624E0,-4.011554718E-1,1.211268426E0
4.456340640E-1,3.822234273E-1,-8.536806107E-1,-4.913883209E-1,1.056564156E0
4.505822940E-1,7.445195913E-1,-4.660391808E-1,-6.056270599E-1,1.066904905E0
4.555305230E-1,1.045592546E0,-7.623767853E-2,-6.533899307E-1,1.235311442E0
4.604787520E-1,1.244040728E0,2.123179436E-1,-5.454378128E-1,1.374852228E0
4.654269810E-1,1.227126122E0,7.191610336E-2,-8.067407608E-1,1.470320067E0
4.703752100E-1,9.668651223E-1,2.709698677E-2,-2.084608078E-1,9.894535461E-1
4.753234390E-1,9.150794148E-1,4.256033897E-2,-7.491693497E-1,1.183400369E0
4.802716690E-1,6.846240163E-1,9.040641785E-2,-6.114473343E-1,9.223617548E-1
4.852198980E-1,5.314861536E-1,9.682869911E-2,-9.913101196E-1,1.128959291E0
4.901681270E-1,3.184635639E-1,1.109459400E-1,-1.328641891E0,1.370772526E0
4.951163560E-1,2.226933241E-1,2.643680573E-1,-1.287039757E0,1.332649287E0
5.000645850E-1,9.814950824E-2,4.998168945E-1,-1.128148079E0,1.237807878E0
5.050128140E-1,-5.423489213E-2,9.279670715E-1,-6.650257111E-1,1.142945102E0
5.099610440E-1,-6.870064884E-2,1.426196337E0,-3.169527054E-1,1.462605479E0
5.149092730E-1,-6.466978043E-2,1.884887457E0,1.171875000E-1,1.889633778E0
5.198575020E-1,-1.426702291E-1,1.961723566E0,3.905105591E-1,2.005296148E0
5.248057310E-1,-4.116708040E-1,1.682393551E0,5.145664215E-1,1.806847950E0
5.297538560E-1,-4.820387661E-1,1.010361433E0,7.903356552E-1,1.370336472E0
5.347021370E-1,-3.068804145E-1,3.193066120E-1,1.247900963E0,1.324156001E0
5.396503660E-1,5.306285620E-1,-3.276153803E-1,1.405548096E0,1.537681358E0
5.445985960E-1,1.557603598E0,-7.405872345E-1,1.277679443E0,2.146407040E0
5.495468250E-1,1.078080058E0,-1.414793730E0,1.737625122E0,2.486611947E0
5.544950540E-1,4.005677104E-1,-2.030303955E0,1.546043396E0,2.583183854E0
5.594432830E-1,-2.333873510E-1,-2.368267298E0,1.204726219E0,2.667306678E0
5.643915120E-1,-7.329789400E-1,-2.596930027E0,1.031192780E0,2.888712904E0
5.693397410E-1,-1.047766209E0,-2.776162863E0,5.565004349E-1,3.019037430E0
5.742879710E-1,-1.049353004E0,-2.864151478E0,-1.926956177E-1,3.056409170E0
5.792362000E-1,-5.533223152E-1,-2.988133192E0,-6.655693054E-1,3.110962561E0
5.841844290E-1,6.415138841E-1,-3.178776979E0,1.971297264E0,3.795019901E0
5.891326580E-1,1.680841923E0,-2.656980038E0,3.193846703E0,4.481677058E0
5.940808870E-1,1.831249118E0,-1.345820904E0,5.941476822E-1,2.348982483E0
5.990291160E-1,1.040547371E0,-9.237909317E-1,-2.381124973E0,2.757876838E0
6.039773460E-1,2.999111414E-1,-1.219337940E0,-4.186050892E0,4.370326507E0
6.089255750E-1,-6.675951481E-1,-1.865571260E0,-5.202700138E0,5.567237029E0
6.138738040E-1,-1.101394653E0,-2.164446831E0,-5.450436592E0,5.967005892E0
6.188220330E-1,-8.559448719E-1,-1.987992525E0,-4.794395924E0,5.260322060E0
6.237702620E-1,-2.799117565E-1,-1.462209225E0,-3.896660805E0,4.171375293E0
6.287184910E-1,8.917307854E-2,-9.798753262E-1,-3.557143688E0,3.690715203E0
6.336667210E-1,-1.481056213E-2,-7.162175179E-1,-3.782859802E0,3.850092878E0
6.386149500E-1,-2.319724560E-1,-6.891694069E-1,-4.080316067E0,4.144604311E0
6.435631790E-1,-4.123926163E-1,-7.171454430E-1,-4.125274181E0,4.207404464E0
6.485114080E-1,-4.095849991E-1,-7.523090839E-1,-3.937403202E0,4.029500317E0
6.534596370E-1,-2.216868401E-1,-5.227859020E-1,-3.438765049E0,3.485334305E0
6.584078660E-1,1.555218697E-1,-2.749919891E-1,-2.734570980E0,2.752759723E0
6.633560960E-1,7.079373598E-1,1.325125694E-1,-2.127411842E0,2.246022269E0
6.683043250E-1,1.224694729E0,5.160605907E-1,-1.721251011E0,2.174603586E0
6.732524500E-1,1.629527211E0,7.328457832E-1,-1.060665607E0,2.077843451E0
6.782007310E-1,1.960258365E0,8.502924442E-1,-5.570507050E-1,2.208147546E0
6.831490120E-1,2.130210161E0,9.321997166E-1,-3.702402115E-1,2.354542303E0
6.880971370E-1,2.284332752E0,1.103124380E0,-2.023496628E-1,2.544799581E0
6.930454190E-1,2.383352757E0,1.249274015E0,1.684761047E-1,2.696189928E0
6.979936480E-1,2.369386435E0,1.347622633E0,6.774501801E-1,2.808739501E0
7.029418770E-1,2.267345190E0,1.314866304E0,1.014668465E0,2.810565726E0
7.078901060E-1,2.117610693E0,1.324406147E0,1.100710869E0,2.729448865E0
7.128383350E-1,1.945966244E0,1.356792688E0,1.060750961E0,2.598627257E0
7.177865640E-1,1.620406747E0,1.110917091E0,9.400739670E-1,2.177979309E0
7.227347940E-1,1.187471509E0,6.462733746E-1,7.600088120E-1,1.550925934E0
7.276830230E-1,7.223963737E-1,1.173036098E-1,4.917955399E-1,8.817479859E-1
7.326312520E-1,3.052672148E-1,-3.177733421E-1,1.140785217E-1,4.551723613E-1
7.375794810E-1,7.856130600E-3,-5.612490177E-1,-2.161149979E-1,6.014714216E-1
7.425277100E-1,-1.553630829E-1,-6.185760498E-1,-4.496507645E-1,7.803587809E-1
7.474759390E-1,-2.571592331E-1,-5.762226582E-1,-5.018129349E-1,8.062131508E-1
7.524241690E-1,-2.482992411E-1,-5.043125153E-1,-4.378461838E-1,7.125257236E-1
7.573723980E-1,-1.366171837E-1,-4.579348564E-1,-3.987264633E-1,6.223755941E-1
7.623206270E-1,3.073287010E-2,-4.627413750E-1,-4.199199677E-1,6.256251822E-1
7.672688560E-1,3.129416704E-1,-5.381846428E-1,-4.480371475E-1,7.670153091E-1
7.722170850E-1,5.812895894E-1,-6.444721222E-1,-5.449714661E-1,1.024810130E0
7.771653140E-1,7.902792692E-1,-7.561337948E-1,-6.858682632E-1,1.291005389E0
7.821135440E-1,9.777070284E-1,-8.278791904E-1,-8.321695328E-1,1.527678343E0
7.870617730E-1,1.142936707E0,-8.986990452E-1,-9.881038666E-1,1.757928764E0
7.920100020E-1,1.312716961E0,-1.030676842E0,-1.138802528E0,2.020492952E0
7.969582310E-1,1.504136086E0,-1.199992180E0,-1.224160671E0,2.280564830E0
8.019064600E-1,1.743100643E0,-1.423178315E0,-1.279670715E0,2.588704987E0
8.068545850E-1,2.089029551E0,-1.662624478E0,-1.302471638E0,2.970655986E0
8.118029190E-1,2.458177805E0,-1.880424261E0,-1.421101093E0,3.405607411E0
8.167510440E-1,2.698578358E0,-2.116568565E0,-1.618432522E0,3.792296332E0
8.216993770E-1,2.835558414E0,-2.456588984E0,-1.732045174E0,4.132215077E0
8.266475020E-1,2.898047686E0,-2.782981873E0,-1.709243298E0,4.366369332E0
8.315957830E-1,2.726944447E0,-3.135087013E0,-1.487919807E0,4.413490903E0
8.365440120E-1,2.800482035E0,-3.301752806E0,-1.743248463E0,4.667246128E0
8.414922410E-1,2.985324144E0,-3.380548239E0,-2.085317612E0,4.968784176E0
8.464404710E-1,3.150539637E0,-3.494909525E0,-2.344465733E0,5.257072585E0
8.513887000E-1,3.358268261E0,-3.650322676E0,-2.413423538E0,5.516106827E0
8.563369290E-1,3.616200924E0,-3.720768452E0,-2.523226738E0,5.769549390E0
8.612851580E-1,3.923172474E0,-3.747046232E0,-2.763795376E0,6.088530414E0
8.662333870E-1,4.104465485E0,-3.798899174E0,-3.122706413E0,6.405432631E0
8.711816160E-1,4.267447948E0,-4.201325417E0,-3.146835804E0,6.764970275E0
8.761298460E-1,4.691330910E0,-4.413164139E0,-2.933740616E0,7.077530461E0
8.810780750E-1,5.185399055E0,-4.161617756E0,-2.809628010E0,7.218132394E0
8.860263040E-1,5.430746078E0,-3.862473965E0,-2.689261913E0,7.186364709E0
8.909745330E-1,5.332859039E0,-3.911225796E0,-2.468019009E0,7.058908597E0
8.959227620E-1,5.041820526E0,-4.199450493E0,-2.227999210E0,6.929597329E0
9.008709910E-1,4.658937931E0,-4.535031319E0,-2.206244469E0,6.865837630E0
9.058192210E-1,4.173597336E0,-4.770721912E0,-2.333363533E0,6.754501289E0
9.107674500E-1,3.534162521E0,-4.927877426E0,-2.508748055E0,6.562628852E0
9.157156790E-1,2.971262455E0,-4.971500874E0,-2.533680916E0,6.321689687E0
9.206639080E-1,2.731993914E0,-4.866184711E0,-2.443082809E0,6.091978168E0
9.256121370E-1,2.929172039E0,-4.806094170E0,-2.197089672E0,6.042002402E0
9.305603660E-1,3.286642075E0,-4.846075058E0,-1.713063240E0,6.100905282E0
9.355084910E-1,3.485873699E0,-4.960413456E0,-1.047208309E0,6.152533002E0
9.404567730E-1,3.280627489E0,-5.155035496E0,-1.295342445E-1,6.111766259E0
9.454050020E-1,2.666134596E0,-5.315058708E0,9.478058815E-1,6.021333635E0
9.503532310E-1,1.494874001E0,-5.430421352E0,1.914232254E0,5.948815804E0
9.553014600E-1,1.709265709E-1,-5.318815231E0,2.407497883E0,5.840809654E0
9.602496890E-1,-1.064273834E0,-5.026286602E0,2.646586418E0,5.779330019E0
9.651979190E-1,-2.192131519E0,-4.658463478E0,2.612931728E0,5.773572100E0
9.701461480E-1,-2.986502171E0,-4.224280834E0,2.206911564E0,5.624429076E0
9.750943770E-1,-3.314442635E0,-3.773297787E0,1.584830284E0,5.266402301E0
9.800426060E-1,-3.293962955E0,-3.263193130E0,8.943920135E-1,4.722134944E0
9.849908350E-1,-3.062554359E0,-2.930889368E0,1.769952774E-1,4.242720710E0
9.899390640E-1,-2.717940807E0,-2.811510086E0,-4.078907967E-1,3.931687436E0
9.948872940E-1,-2.166403770E0,-2.773426056E0,-6.695613861E-1,3.582388845E0
9.998355230E-1,-1.543100357E0,-2.763484478E0,-7.413606644E-1,3.250787721E0
1.004783752E0,-1.081964016E0,-2.774503231E0,-6.711485386E-1,3.052696295E0
1.009731981E0,-8.534755707E-1,-2.786065817E0,-3.626651764E-1,2.936342847E0
1.014680210E0,-9.233899117E-1,-2.825551271E0,7.716703415E-2,2.973607854E0
1.019628439E0,-1.264979362E0,-2.823217154E0,5.432276726E-1,3.140990956E0
1.024576669E0,-2.200629234E0,-2.829349995E0,1.062119961E0,3.738460810E0
1.029524898E0,-3.720833302E0,-2.772739887E0,1.515472412E0,4.881530864E0
1.034473127E0,-5.504557610E0,-2.482323170E0,1.779158831E0,6.295036850E0
1.039421356E0,-7.237277031E0,-2.001226425E0,1.764637947E0,7.713431993E0
1.044369585E0,-8.617646217E0,-1.421775341E0,1.295705557E0,8.829729573E0
1.049317814E0,-9.593038559E0,-8.159446716E-1,6.578590870E-1,9.650126065E0
1.054265939E0,-1.005599308E1,-3.237192631E-1,2.168655396E-2,1.006122564E1
1.059214221E0,-1.001854229E1,4.735112190E-2,-3.826735020E-1,1.002595984E1
1.064162450E0,-9.595100403E0,3.087248802E-1,-6.142609119E-1,9.619697462E0
1.069110679E0,-8.977881432E0,4.076588154E-1,-7.402534485E-1,9.017567071E0
1.074058908E0,-8.255264282E0,4.601612091E-1,-6.619777679E-1,8.294537436E0
1.079007137E0,-7.479152679E0,5.191099644E-1,-2.686562538E-1,7.501958154E0
1.083955366E0,-6.689302444E0,5.703268051E-1,3.905014992E-1,6.724918682E0
1.088903596E0,-6.089273453E0,4.703509808E-1,1.164796114E0,6.217493966E0
1.093851825E0,-5.672278404E0,3.005878925E-1,1.979975700E0,6.015430089E0
1.098800054E0,-5.491415977E0,2.803049088E-1,2.785332918E0,6.163789398E0
1.103748283E0,-5.470980644E0,4.366405010E-1,3.400820255E0,6.456613861E0
1.108696512E0,-5.621639252E0,5.958738327E-1,3.753165722E0,6.785583721E0
1.113644741E0,-5.909055710E0,7.622463703E-1,3.833645105E0,7.084828417E0
1.118592971E0,-6.201256752E0,9.110877514E-1,3.697727203E0,7.277283330E0
1.123541200E0,-6.460148811E0,1.078070402E0,3.469536543E0,7.411709808E0
1.128489429E0,-6.616669655E0,1.298804522E0,3.161113739E0,7.447137073E0
1.133437658E0,-6.797757149E0,1.601511240E0,2.817061424E0,7.530615883E0
1.138385887E0,-7.145960808E0,2.062247753E0,1.968669891E0,7.693717099E0
1.143334012E0,-7.428919792E0,2.042596340E0,1.882937193E0,7.931361898E0
1.148282346E0,-7.389313698E0,1.768784761E0,1.920260668E0,7.836960986E0
1.153230471E0,-7.147806168E0,1.642217875E0,1.931548357E0,7.584121018E0
1.158178752E0,-6.747757912E0,1.553207159E0,1.727818251E0,7.136528934E0
1.163126981E0,-6.266213417E0,1.779511213E0,1.733299017E0,6.740653991E0
1.168075210E0,-5.917244911E0,2.078306675E0,1.917253971E0,6.558125400E0
1.173023439E0,-5.750007629E0,2.182075024E0,2.238902092E0,6.544976831E0
1.177971669E0,-5.739256859E0,2.183207989E0,2.518621683E0,6.636936160E0
1.182919898E0,-5.655704498E0,2.144383430E0,2.548862696E0,6.563693679E0
1.187868127E0,-5.287401199E0,2.139945984E0,2.426661730E0,6.198763377E0
1.192816356E0,-4.829229355E0,2.154670238E0,2.181939363E0,5.720569848E0
1.197764585E0,-4.274531364E0,2.184607506E0,1.859196424E0,5.147886915E0
1.202712814E0,-3.774027824E0,2.261207819E0,1.545192003E0,4.663042477E0
1.207661044E0,-3.420555115E0,2.362959623E0,1.142386198E0,4.311475583E0
1.212609273E0,-3.007077217E0,2.340702057E0,5.904650688E-1,3.856170186E0
1.217557502E0,-2.598652840E0,2.121758938E0,1.141703129E-1,3.356768153E0
1.222505731E0,-2.317596436E0,1.924415112E0,-2.500004768E-1,3.022768102E0
1.227453960E0,-2.215843201E0,1.772118807E0,-5.623377562E-1,2.892505818E0
1.232402189E0,-2.190506935E0,1.687956095E0,-5.818331242E-1,2.825959341E0
1.237350419E0,-2.302221298E0,1.699000597E0,-8.633607626E-1,2.988681606E0
1.242298648E0,-2.702644348E0,1.780583858E0,-1.235394478E0,3.464240879E0
1.247246877E0,-2.741767883E0,1.956815243E0,-1.496948957E0,3.686091860E0
1.252195002E0,-2.450247765E0,2.202239990E0,-1.943544984E0,3.825041462E0
1.257143283E0,-1.809525490E0,2.317820787E0,-2.541841745E0,3.886854147E0
1.262091512E0,-8.608388901E-1,2.432185650E0,-2.791276217E0,3.801025328E0
1.267039741E0,3.331327438E-1,2.346105814E0,-3.480957985E0,4.210968821E0
1.271987971E0,1.279163361E0,2.124545097E0,-4.333237171E0,4.992684163E0
1.276936200E0,1.651521683E0,1.782795191E0,-4.851853371E0,5.426450377E0
1.281884429E0,1.748614788E0,1.505138397E0,-4.851810455E0,5.372444506E0
1.286832658E0,1.677549839E0,1.419770479E0,-4.459618092E0,4.971731610E0
1.291780887E0,1.649775028E0,1.436161280E0,-3.861521482E0,4.437979836E0
1.296729116E0,1.692222595E0,1.542153835E0,-3.089786530E0,3.845599636E0
1.301677346E0,1.835779667E0,1.682062149E0,-2.100960016E0,3.257829500E0
1.306625575E0,2.087078571E0,1.790529728E0,-1.144953251E0,2.978726509E0
1.311573804E0,2.340764999E0,1.751069069E0,-4.355813861E-1,2.955529531E0
1.316522033E0,2.375514984E0,1.574776649E0,8.429926634E-2,2.851332899E0
1.321470262E0,2.031021595E0,1.338777065E0,7.315980196E-1,2.540198499E0
1.326418491E0,1.366577148E0,1.224059820E0,1.727432132E0,2.519896291E0
1.331366721E0,1.131240845E0,1.530578375E0,2.768073559E0,3.359256947E0
1.336314950E0,1.432663918E0,1.991463423E0,3.379261017E0,4.175866076E0
1.341263075E0,1.779752731E0,1.987463832E0,2.913175583E0,3.950205595E0
1.346211356E0,1.857326984E0,1.712470055E0,2.077039957E0,3.270521701E0
1.351159585E0,1.957550049E0,1.421252251E0,9.281358719E-1,2.591022260E0
1.356107814E0,1.991728306E0,1.092772961E0,-3.752352893E-1,2.302593301E0
1.361056044E0,2.100826263E0,9.420142174E-1,-1.408545256E0,2.699048260E0
1.366004273E0,2.269607544E0,1.068036318E0,-2.154823065E0,3.306823615E0
1.370952502E0,2.369033813E0,1.238989353E0,-2.700964928E0,3.800345690E0
1.375900731E0,2.573075294E0,1.408359289E0,-3.105255604E0,4.271627877E0
1.380848960E0,2.752775192E0,1.463910580E0,-3.595608711E0,4.759118348E0
1.385797189E0,2.829262257E0,1.383017778E0,-3.947986841E0,5.050154769E0
1.390745419E0,2.865068436E0,1.230470657E0,-4.007755280E0,5.077871361E0
1.395693648E0,2.826758862E0,1.087928057E0,-3.488309383E0,4.619789548E0
1.400641877E0,2.432920456E0,8.099148273E-1,-2.482740402E0,3.569182522E0
1.405590106E0,1.989832401E0,5.355651379E-1,-1.406689286E0,2.495002555E0
1.410538335E0,1.912374020E0,3.845958710E-1,-4.767042994E-1,2.008067570E0
1.415486460E0,2.103441238E0,3.045334816E-1,9.013162553E-2,2.127282162E0
1.420434794E0,2.525870800E0,2.145481110E-1,2.482971698E-1,2.547097500E0
1.425383023E0,3.021168232E0,1.459031105E-1,-2.156376839E-2,3.024766140E0
1.430331148E0,3.336449146E0,-6.200027466E-2,-1.061580062E0,3.501812269E0
1.435279429E0,3.145651340E0,-4.594411850E-1,-2.268298626E0,3.905302449E0
1.440227658E0,2.416869640E0,-1.300531387E0,-2.780880451E0,3.907164807E0
1.445175887E0,5.578718185E-1,-2.992171764E0,-2.107352495E0,3.702059882E0
1.450124116E0,5.597252846E-1,-3.549507141E0,1.903701872E-1,3.598407168E0
1.455072346E0,7.543439865E-1,-3.701449871E0,1.428804398E0,4.038718609E0
1.460020575E0,2.650929928E0,-1.874574661E0,1.670328021E0,3.651226553E0
1.464968804E0,5.257980347E0,7.067518234E-1,8.807980418E-1,5.377886263E0
1.469917033E0,6.948686600E0,2.468436241E0,-8.993394375E-1,7.428743794E0
1.474865262E0,6.925464630E0,2.358887911E0,-3.298685551E0,8.025443220E0
1.479813491E0,4.210025787E0,5.915212631E-2,-4.229354858E0,5.967852095E0
1.484761721E0,9.803075790E-1,-3.043789864E0,-2.452510357E0,4.029946245E0
1.489709950E0,-9.525661469E-1,-4.625858307E0,6.073837876E-1,4.761812933E0
1.494658179E0,-1.189027786E0,-3.820924282E0,3.522137403E0,5.330919371E0
1.499606408E0,-8.040432930E-1,-2.160560131E0,6.048106670E0,6.472565179E0
1.504554637E0,-5.637555122E-1,-4.748344421E-1,5.103061199E0,5.156018001E0
1.509502762E0,-1.796378136E0,-2.455201149E-1,3.382820845E0,3.838063496E0
1.514451044E0,-3.336022854E0,-6.210603714E-1,4.509582520E-1,3.423175107E0
1.519399273E0,-4.602765560E0,-5.833172798E-1,-1.273669958E0,4.811231133E0
1.524347502E0,-5.488739491E0,5.886125565E-2,-2.193525791E0,5.911115059E0
1.529295731E0,-5.177290916E0,1.041890144E0,-3.137008667E0,6.142532025E0
1.534243960E0,-4.686039925E0,1.774883270E0,-3.282960176E0,5.990576627E0
1.539192189E0,-3.923627377E0,2.233542442E0,-2.818706274E0,5.322468289E0
1.544140419E0,-2.970202923E0,2.323820591E0,-2.279681206E0,4.406721450E0
1.549088648E0,-2.388916016E0,2.261212826E0,-1.411263466E0,3.579339009E0
1.554036877E0,-2.477450848E0,2.006169796E0,1.293821186E-1,3.190488941E0
1.558985106E0,-2.366719246E0,1.945437908E0,1.636636019E0,3.473422822E0
1.563933335E0,-2.303360462E0,2.190787315E0,3.102868319E0,4.442162793E0
1.568881564E0,-2.307691574E0,2.742953777E0,3.711567879E0,5.159939142E0
1.573829794E0,-2.541349888E0,3.261892796E0,3.202434063E0,5.230103994E0
1.578778023E0,-2.784664631E0,3.653522015E0,2.083629847E0,5.044213869E0
1.583726148E0,-3.129771233E0,3.533587933E0,8.621024489E-1,4.798430189E0
1.588674429E0,-3.266371727E0,3.331292152E0,-1.085319668E-1,4.666740924E0
1.593622658E0,-3.112011909E0,2.856399059E0,-6.966198087E-1,4.281227963E0
1.598570887E0,-2.673111916E0,2.439772606E0,-7.960239649E-1,3.705627050E0
1.603519116E0,-2.012187481E0,2.181263924E0,-2.277359962E-1,2.976352541E0
1.608467346E0,-1.786471844E0,1.546008587E0,7.228732705E-1,2.470661847E0
1.613415575E0,-1.905091286E0,5.416436195E-1,1.241195321E0,2.337373835E0
1.618363804E0,-2.634650230E0,-1.684341431E-1,1.033928037E0,2.835270548E0
1.623312033E0,-3.094551563E0,-1.420709610E0,1.433143139E0,3.694396355E0
1.628260262E0,-4.056410789E0,-2.344792366E0,5.473946571E0,7.205318230E0
1.633208491E0,-4.812747002E0,-2.418571472E0,7.654896975E-1,5.440404042E0
1.638156721E0,-4.996729851E0,-3.665198326E0,-2.672567844E0,6.748600363E0
1.643104950E0,-5.571564674E0,-3.607176781E0,-1.240826011E0,6.752311192E0
1.648053179E0,-1.952061176E0,5.868997574E-1,1.769171357E0,2.699066774E0
1.653001408E0,-1.818452835E0,2.186326981E-1,1.716089129E0,2.509887023E0
1.657949533E0,-2.556975842E0,-1.622622490E0,2.001200914E0,3.629853206E0
1.662897814E0,-2.205601215E0,-4.116826057E0,8.687374592E-1,4.750540841E0
1.667846044E0,-7.809071541E-1,-4.946832657E0,1.539360881E-1,5.010455632E0
1.672794273E0,1.627727032E0,-3.336473465E0,5.792166591E-1,3.757265283E0
1.677742502E0,2.656777620E0,-2.916931152E0,7.724496126E-1,4.020402104E0
1.682690731E0,2.605801582E0,-2.655192375E0,6.612235904E-1,3.778553304E0
1.687638960E0,2.305582285E0,-2.459252357E0,1.821886152E-1,3.375918323E0
1.692587189E0,2.086759329E0,-2.198417664E0,-3.663934767E-1,3.053170303E0
1.697535419E0,1.602268696E0,-1.988965034E0,-8.762632012E-1,2.700200748E0
1.702483648E0,7.122030258E-1,-1.591529846E0,-1.358271599E0,2.210226716E0
1.707431877E0,-2.685723305E-1,-1.357155800E0,-2.024770260E0,2.452284153E0
1.712380106E0,-1.158566952E0,-8.974866867E-1,-1.905992389E0,2.404280915E0
1.717328335E0,-1.827846527E0,-3.665895462E-1,-1.851328850E0,2.627323606E0
1.722276564E0,-2.005321026E0,2.235813141E-1,-1.184742570E0,2.339853837E0
1.727224689E0,-1.856423378E0,6.886510849E-1,-5.028809905E-1,2.042899255E0
1.732173023E0,-1.588049889E0,8.061695099E-1,1.418900955E-2,1.781014614E0
1.737121148E0,-1.144384146E0,8.129568100E-1,3.640978336E-1,1.450200359E0
1.742069429E0,-7.329046726E-1,8.021936417E-1,6.088693738E-1,1.245546391E0
1.747017658E0,-3.029444218E-1,7.356338501E-1,8.247326016E-1,1.145912889E0
1.751965887E0,1.881337166E-2,6.040163040E-1,1.096505404E0,1.252003889E0
1.756914116E0,2.568917274E-1,4.218893051E-1,1.487652063E0,1.567511597E0
1.761862346E0,5.254216194E-1,2.434940338E-1,1.762903690E0,1.855582562E0
1.766810575E0,2.748951912E-1,-6.706476212E-1,1.789816976E0,1.931005024E0
1.771758804E0,-8.353900909E-2,-2.296877861E0,5.531790257E-1,2.364029126E0
1.776707033E0,3.088135719E-1,-2.711565018E0,-1.317135096E0,3.030312777E0
1.781655262E0,1.081773043E0,-1.580121040E0,-2.330683947E0,3.016471959E0
1.786603491E0,1.184321284E0,-4.860057831E-1,-1.007932544E0,1.629339295E0
1.791551721E0,8.774757385E-1,1.964368820E-1,-5.807662010E-1,1.070439396E0
1.796499950E0,3.362314701E-1,5.687999725E-1,-1.765937358E-1,6.839373932E-1
1.801448179E0,-1.399247646E-1,7.321310043E-1,7.962643355E-2,7.496233162E-1
1.806396304E0,-3.789532185E-1,6.678276062E-1,2.549468875E-1,8.090717946E-1
1.811344585E0,-2.137463093E-1,3.644180298E-1,3.799676597E-1,5.682107070E-1
1.816292814E0,4.324531555E-2,-6.857299805E-2,3.669149876E-1,3.757645825E-1
1.821241044E0,1.616055965E-1,-1.066781044E0,5.439821482E-1,1.208327250E0
1.826189273E0,6.313045025E-1,-2.394493103E0,9.002808332E-1,2.634890543E0
1.831137502E0,1.833089113E0,-3.052487373E0,9.254758358E-1,3.678912935E0
1.836085731E0,2.548821449E0,-3.544180870E0,6.783373952E-1,4.417901135E0
1.841033960E0,2.760352612E0,-3.869879723E0,1.917419285E-1,4.757339653E0
1.845982189E0,2.571317911E0,-3.782917023E0,-7.160109282E-1,4.629774147E0
1.850930419E0,2.087352514E0,-2.489254951E0,-1.904460907E0,3.765687464E0
1.855878648E0,1.408591509E0,-9.278707504E-1,-2.095360994E0,2.689909267E0
1.860826877E0,1.438233376E0,1.065237045E0,-1.751530886E0,2.504217572E0
1.865775106E0,2.074808836E0,3.247545242E0,-1.408695102E0,4.103145586E0
1.870723335E0,2.773720264E0,5.702339172E0,-6.386904716E-1,6.373234788E0
1.875671460E0,3.758540392E0,8.260068893E0,-8.575086296E-2,9.075390747E0
1.880619741E0,3.758602142E0,1.093346310E1,7.358051538E-1,1.158486576E1
1.885567971E0,4.143480778E0,1.393802929E1,1.407100439E0,1.460879958E1
1.890516200E0,3.782236576E0,1.441444206E1,1.803272724E0,1.501110409E1
1.895464429E0,2.970592499E0,1.479311085E1,1.209960818E0,1.513686076E1
1.900412658E0,3.490745068E0,1.750381851E1,2.827236891E0,1.807103296E1
1.905360887E0,4.611758709E0,1.986294556E1,7.810758114E0,2.183604513E1
1.910309116E0,5.188035011E0,1.913357544E1,4.407177448E0,2.030843740E1
1.915257346E0,4.767644882E0,1.642941666E1,1.374176502E0,1.716229968E1
1.920205575E0,4.933685303E0,1.555348015E1,2.519141138E-1,1.631917449E1
1.925153804E0,5.761462688E0,1.532419109E1,-2.113993615E-1,1.637284260E1
1.930102033E0,6.243588924E0,1.369525433E1,-1.979852676E0,1.518098186E1
1.935050262E0,6.720757484E0,1.074162865E1,-3.453878164E0,1.313318094E1
1.939998387E0,7.270748615E0,8.135952950E0,-4.026734829E0,1.163065386E1
1.944946669E0,8.002765656E0,5.092070103E0,-3.728705406E0,1.019199098E1
1.949894898E0,7.787897110E0,4.246909618E0,-2.729318142E0,9.280989183E0
1.954843127E0,7.695453644E0,3.510394573E0,-2.539610624E0,8.831336194E0
1.959791356E0,7.164820671E0,1.358622074E0,-2.622925997E0,7.749854836E0
1.964739585E0,5.476726055E0,-1.433590889E0,-5.320725918E0,7.769159247E0
1.969687814E0,5.703287125E0,-3.520620346E0,-3.511696815E0,7.566654886E0
1.974636044E0,2.673821688E0,-6.884836197E0,5.473786592E-1,7.406072864E0
1.979584273E0,1.619814634E0,-6.443230629E0,4.939215183E0,8.278578804E0
1.984532502E0,-2.319014931E1,-4.539466095E1,7.338096619E0,5.150054300E1
1.989480731E0,-2.453239632E1,-4.973863220E1,6.422657967E0,5.583028334E1
1.994428856E0,-1.215565300E1,-2.954500961E1,6.391571522E0,3.258097112E1
1.999377137E0,-1.467909336E1,-3.331305313E1,4.879765511E0,3.672938064E1
2.004325366E0,-1.212225723E1,-2.991622925E1,5.305363655E0,3.271202801E1
2.009273596E0,-4.053233147E0,-1.677814293E1,3.743489027E0,1.766206356E1
2.014221825E0,-1.312913179E0,-1.223277473E1,2.862755299E0,1.263170165E1
2.019170054E0,-6.914188862E-1,-9.936366081E0,1.816472292E0,1.012467296E1
2.024118283E0,-1.679060608E-1,-7.763077736E0,4.521617889E-1,7.778047227E0
2.029066512E0,2.674513459E-1,-5.841241837E0,-1.591165066E0,6.059987020E0
2.034014741E0,5.935677886E-1,-4.420105934E0,-3.717057228E0,5.805701820E0
2.038962971E0,1.165924788E0,-2.735258102E0,-4.639715672E0,5.510714927E0
2.043911200E0,1.546650171E0,-1.249378204E0,-4.876355171E0,5.266109798E0
2.048859429E0,2.608318329E0,4.787845612E-1,-4.648501873E0,5.351740728E0
2.053807658E0,3.019438744E0,2.062731743E0,-4.183047295E0,5.556055907E0
2.058755783E0,3.010507107E0,2.889732838E0,-3.704424858E0,5.580006491E0
2.063704064E0,2.715626240E0,3.136595726E0,-3.205874920E0,5.243137670E0
2.068652294E0,1.544860482E0,2.762053013E0,-4.022489548E0,5.118198210E0
2.073600523E0,3.288521767E-1,1.358350754E0,-2.701340914E0,3.041463999E0
2.078548752E0,2.803761363E-1,-4.829845428E-1,8.429067731E-1,1.011126438E0
2.083496981E0,2.400910258E-1,-1.667333603E0,2.564794064E0,3.068519779E0
2.088445210E0,2.504254580E-1,-2.009999275E0,2.904711723E0,3.541208860E0
2.093393439E0,1.514372826E-1,-1.570219040E0,2.313675642E0,2.800288567E0
2.098341669E0,2.969479561E-2,-1.778275490E0,1.327547312E0,2.219352916E0
2.103289898E0,-1.629710197E-2,-1.811624527E0,2.751204669E-1,1.832468361E0
2.108238127E0,4.011818171E-1,-8.382587433E-1,-4.800896943E-1,1.045997460E0
2.113186356E0,6.992537379E-1,4.109697342E-1,-1.683478475E0,1.868676453E0
2.118134481E0,2.868248224E-1,1.068500519E0,-2.534860849E0,2.765769579E0
2.123082762E0,-3.973875642E-1,1.245944977E0,-2.831328154E0,3.118768166E0
2.128030991E0,-1.089939117E0,1.085931778E0,-2.644185543E0,3.059237208E0
2.132979221E0,-1.622334480E0,-1.126890182E-1,-2.865957737E0,3.295205871E0
2.137927450E0,-1.952630758E0,-1.081439972E0,-2.743123770E0,3.536524750E0
2.142875679E0,-1.880784035E0,-1.541472435E0,-2.922865152E0,3.802187075E0
2.147823908E0,-1.713662386E0,-1.821289062E0,-3.483238697E0,4.287969734E0
2.152772137E0,-1.431583405E0,-1.794877052E0,-3.624598742E0,4.290539676E0
2.157720366E0,-1.018880367E0,-1.592068672E0,-3.507574797E0,3.984454895E0
2.162668596E0,-7.173561454E-1,-1.373396873E0,-3.751125813E0,4.058542062E0
2.167616825E0,-4.882425666E-1,-1.169976234E0,-3.821941853E0,4.026718853E0
2.172565054E0,-2.852067947E-1,-1.153664589E0,-3.375214100E0,3.578317359E0
2.177513179E0,-2.033888102E-1,-1.063669205E0,-2.823196888E0,3.023772454E0
2.182461460E0,3.274977207E-3,-9.311990738E-1,-2.174064398E0,2.365100092E0
2.187409689E0,2.266008854E-1,-8.136930466E-1,-1.645802736E0,1.849894857E0
2.192357919E0,4.253345132E-1,-7.946996689E-1,-1.164882421E0,1.472891058E0
2.197306148E0,5.394232273E-1,-7.974567413E-1,-5.412491560E-1,1.104475134E0
2.202254377E0,6.235216856E-1,-9.126605988E-1,-4.298508167E-2,1.106153867E0
2.207202606E0,7.062535882E-1,-1.130562782E0,2.951146364E-1,1.365305455E0
2.212150835E0,6.421646476E-1,-1.085391045E0,5.567466617E-1,1.378555766E0
2.217099064E0,6.957485080E-1,-8.733844757E-1,8.571782708E-1,1.407700613E0
2.222047294E0,7.711641788E-1,-5.976791382E-1,9.268824458E-1,1.345743516E0
2.226995523E0,8.122380376E-1,-3.945732117E-1,8.997560740E-1,1.274746893E0
2.231943752E0,7.856521606E-1,-2.662754059E-1,9.767563343E-1,1.281485406E0
2.236891877E0,6.699124575E-1,-1.625041962E-1,1.007569075E0,1.220813563E0
2.241840158E0,5.377036333E-1,-6.655502319E-2,7.996150851E-1,9.658877019E-1
2.246788387E0,3.898465633E-1,1.441383362E-2,4.730662107E-1,6.131718693E-1
2.251736616E0,2.938508689E-1,9.704303741E-2,1.244331598E-1,3.335405456E-1
2.256684846E0,2.123408318E-1,1.838455200E-1,-8.932816982E-2,2.947326347E-1
2.261633075E0,-8.093076944E-2,9.809875488E-2,1.918112040E-1,2.301405942E-1
2.266581304E0,-4.687529206E-1,-8.807182312E-2,4.978888035E-1,6.894774886E-1
2.271529533E0,-6.877557635E-1,-2.286643982E-1,9.335477948E-1,1.181865848E0
2.276477762E0,-8.324809670E-1,-3.237609863E-1,1.295181036E0,1.573321217E0
2.281425991E0,-1.117139578E0,-3.877258301E-1,1.573071599E0,1.967965043E0
2.286374221E0,-1.362833619E0,-4.326772690E-1,1.758222938E0,2.266246454E0
2.291322346E0,-1.519057751E0,-4.849739075E-1,1.769688129E0,2.382127666E0
2.296270627E0,-1.707995296E0,-5.541067123E-1,1.688680887E0,2.464939212E0
2.301218856E0,-1.860203624E0,-6.066360474E-1,1.692194462E0,2.586868167E0
2.306167085E0,-2.013794899E0,-7.047767639E-1,1.567551374E0,2.647507789E0
2.311115314E0,-2.081373215E0,-8.436298370E-1,1.281381726E0,2.585684607E0
2.316063544E0,-1.932295084E0,-9.560976028E-1,1.122554064E0,2.430640768E0
2.321011773E0,-1.692122698E0,-1.061378479E0,8.855831623E-1,2.184962480E0
2.325960002E0,-1.466908097E0,-1.173883438E0,6.594713926E-1,1.991161523E0
2.330908231E0,-1.175725818E0,-1.257763863E0,3.965770006E-1,1.766797795E0
2.335856460E0,-9.175473452E-1,-1.344457626E0,2.204034328E-1,1.642570276E0
2.340804585E0,-5.846505165E-1,-1.362540245E0,1.318035126E-1,1.488524206E0
2.345752866E0,-2.934533358E-1,-1.410354614E0,2.395584583E-1,1.460343539E0
2.350701096E0,1.300384402E-1,-1.318401337E0,5.680915117E-1,1.441464549E0
2.355649325E0,5.937153101E-1,-1.136976242E0,1.068954468E0,1.669693534E0
2.360597554E0,9.369403124E-1,-9.045429230E-1,1.536791086E0,2.014393678E0
2.365545783E0,1.267791271E0,-6.446666718E-1,1.874564886E0,2.353058294E0
2.370494012E0,1.464404702E0,-3.570909500E-1,2.105477095E0,2.589407051E0
2.375442241E0,1.701935768E0,-1.438856125E-1,2.284618855E0,2.852502715E0
2.380390471E0,1.961774349E0,3.863716125E-2,2.331511974E0,3.047293802E0
2.385338700E0,2.289920568E0,1.668062210E-1,2.061990499E0,3.085995033E0
2.390286929E0,2.610231400E0,3.340330124E-1,1.600629568E0,3.080081334E0
2.395235158E0,2.896524429E0,4.995660782E-1,1.084370375E0,3.132934590E0
2.400183387E0,3.134561539E0,6.418428421E-1,5.447664261E-1,3.245644579E0
2.405131512E0,3.326869965E0,8.181982040E-1,2.162907124E-1,3.432825911E0
2.410079794E0,3.397008419E0,1.059759140E0,8.870029449E-2,3.559581910E0
2.415028023E0,3.381462574E0,1.304133415E0,1.863479614E-2,3.624279288E0
2.419976252E0,3.216740608E0,1.491670609E0,6.523251534E-2,3.546372319E0
2.424924481E0,3.046366215E0,1.622388363E0,1.904683113E-1,3.456699190E0
2.429872710E0,2.939997196E0,1.720226765E0,3.704323769E-1,3.426365973E0
2.434820939E0,2.873631954E0,1.763528824E0,5.555436611E-1,3.417078179E0
2.439769169E0,2.837382078E0,1.733402729E0,8.579068184E-1,3.433864614E0
2.444717398E0,2.843391418E0,1.682546616E0,1.143472433E0,3.496193227E0
2.449665523E0,2.962652206E0,1.685337067E0,1.366379976E0,3.672146969E0
2.454613804E0,3.116016626E0,1.725092888E0,1.452326536E0,3.846395385E0
2.459562033E0,3.243736506E0,1.782602787E0,1.411226511E0,3.961194199E0
2.464510262E0,3.269737720E0,1.831498623E0,1.250546575E0,3.950878219E0
2.469458491E0,3.280344009E0,1.850168228E0,1.059262753E0,3.912264929E0
2.474406721E0,3.220423698E0,1.857855797E0,9.089970589E-1,3.827405467E0
2.479354950E0,3.013874054E0,1.935711861E0,8.859171867E-1,3.689887056E0
2.484303179E0,2.780324936E0,2.030762672E0,9.642927647E-1,3.575480991E0
2.489251408E0,2.567703962E0,2.040291786E0,1.064867496E0,3.448164294E0
2.494199637E0,2.433568954E0,1.971339226E0,1.090391397E0,3.316231234E0
2.499147866E0,2.336789131E0,1.864696980E0,1.062589407E0,3.172818072E0
2.504096096E0,2.317974091E0,1.727574348E0,1.046144247E0,3.074399909E0
2.509044221E0,2.326658726E0,1.602897644E0,1.012808084E0,3.001399990E0
2.513992502E0,2.162333488E0,1.397436142E0,9.052240849E-1,2.729092254E0
2.518940731E0,2.118535519E0,1.405078888E0,8.509025574E-1,2.680760076E0
2.523888960E0,2.044636011E0,1.362439156E0,8.142366409E-1,2.588389109E0
2.528837189E0,1.926052094E0,1.250423431E0,5.948045254E-1,2.372135715E0
2.533785419E0,1.862913847E0,1.245953083E0,3.389170170E-1,2.266652119E0
2.538733648E0,1.719434261E0,1.260345459E0,4.900336266E-2,2.132446057E0
2.543681877E0,1.503356695E0,1.243341446E0,-1.936700344E-1,1.960481417E0
2.548630106E0,1.268509150E0,1.180897713E0,-4.930384159E-1,1.801866185E0
2.553578335E0,1.011066198E0,1.151902199E0,-6.818969250E-1,1.677532995E0
2.558526564E0,8.221700191E-1,1.113613129E0,-7.519779205E-1,1.575299506E0
2.563474689E0,6.664783955E-1,1.097199440E0,-7.828311920E-1,1.503617218E0
2.568422971E0,5.224424601E-1,1.071621895E0,-7.747120857E-1,1.421794087E0
2.573371200E0,4.356442690E-1,1.034616470E0,-7.758646011E-1,1.364618280E0
2.578319429E0,4.180725813E-1,9.958467484E-1,-7.292232513E-1,1.303173810E0
2.583267658E0,4.328410029E-1,9.623298645E-1,-6.795308590E-1,1.255066648E0
2.588215887E0,4.632562995E-1,9.867925644E-1,-5.437080860E-1,1.218189003E0
2.593164116E0,6.403837800E-1,9.804916382E-1,-5.433893204E-1,1.291017890E0
2.598112346E0,7.672427893E-1,9.556026459E-1,-6.308097839E-1,1.378317416E0
2.603060575E0,9.704324007E-1,9.382352829E-1,-8.505399227E-1,1.595444343E0
2.608008700E0,1.239068627E0,9.260177612E-1,-1.123192787E0,1.911638563E0
2.612956981E0,1.450277209E0,9.069719315E-1,-1.355128050E0,2.182263527E0
2.617905210E0,1.670340300E0,8.951482773E-1,-1.691026211E0,2.539861571E0
2.622853439E0,1.817136049E0,8.451595306E-1,-1.972797632E0,2.812153721E0
2.627801669E0,1.916355491E0,7.378292084E-1,-2.250098944E0,3.046269122E0
2.632749898E0,1.957940817E0,5.850915909E-1,-2.579777241E0,3.291065940E0
2.637698127E0,1.927805543E0,4.203176498E-1,-2.856188059E0,3.471442260E0
2.642646356E0,1.795239091E0,1.932067871E-1,-3.160405397E0,3.639831663E0
2.647594585E0,1.559457779E0,-5.114078522E-2,-3.441409826E0,3.778601003E0
2.652542814E0,1.226317406E0,-3.699970245E-1,-3.620887041E0,3.840777934E0
2.657491044E0,9.456523657E-1,-6.943731308E-1,-3.772172451E0,3.950404719E0
2.662439169E0,6.132730842E-1,-1.038523674E0,-3.699908018E0,3.891523434E0
2.667387450E0,3.450733721E-1,-1.397604942E0,-3.557815790E0,3.838024023E0
2.672335679E0,1.249616742E-1,-1.704352379E0,-3.306578636E0,3.722082042E0
2.677283908E0,-2.044069767E-2,-1.951564789E0,-3.030478477E0,3.604555832E0
2.682232137E0,-7.445800304E-2,-2.062285423E0,-2.762427330E0,3.448125565E0
2.687180366E0,-4.195976257E-2,-2.098715782E0,-2.531585217E0,3.288661166E0
2.692128596E0,7.634934783E-2,-2.043835640E0,-2.262538195E0,3.049946299E0
2.697076825E0,1.561521292E-1,-1.924146652E0,-1.947991848E0,2.742516375E0
2.702025054E0,2.441520393E-1,-1.684623718E0,-1.564413548E0,2.311916313E0
2.706973283E0,3.376099467E-1,-1.339800835E0,-1.107125759E0,1.770529356E0
2.711921512E0,4.762293696E-1,-8.756809235E-1,-6.497185230E-1,1.189851105E0
2.716869637E0,5.450476408E-1,-3.234605789E-1,-2.091441154E-1,6.674166149E-1
2.721817919E0,6.181567907E-1,2.999401093E-1,1.191582680E-1,6.973382106E-1
2.726766148E0,6.107363701E-1,8.653736115E-1,3.255844116E-1,1.108095488E0
2.731714377E0,5.093253851E-1,1.394573689E0,2.856256962E-1,1.511896213E0
2.736662606E0,4.822053015E-1,1.923687935E0,2.283442020E-1,1.996306163E0
2.741610835E0,4.676724076E-1,2.374235153E0,1.166996956E-1,2.422669780E0
2.746559064E0,5.182900429E-1,2.634248257E0,-1.881504059E-2,2.684817024E0
2.751507294E0,5.880485773E-1,2.572781563E0,-1.547198296E-1,2.643661159E0
2.756455523E0,6.860083342E-1,2.209566116E0,-2.864062786E-1,2.331269700E0
2.761403752E0,6.546472907E-1,1.650060654E0,-4.850454330E-1,1.840253327E0
2.766351877E0,4.278378189E-1,1.116704941E0,-7.263669968E-1,1.399172662E0
2.771300158E0,1.778105050E-1,6.451358795E-1,-8.259565830E-1,1.063024532E0
2.776248387E0,4.986929893E-2,1.657037735E-1,-8.216989040E-1,8.397224401E-1
2.781196616E0,6.721317768E-2,-3.504629135E-1,-7.012841702E-1,7.868553567E-1
2.786144846E0,1.311698258E-1,-9.370012283E-1,-5.885255337E-1,1.114243748E0
2.791093075E0,1.648340821E-1,-1.565358162E0,-4.133443832E-1,1.627381341E0
2.796041304E0,2.138407528E-1,-2.252562523E0,-3.156995773E-1,2.284607627E0
2.800989533E0,2.588809729E-1,-3.008199692E0,-2.113833427E-1,3.026709048E0
2.805937762E0,4.430093467E-1,-3.701032639E0,-1.565217972E-1,3.730737051E0
2.810885991E0,6.985310316E-1,-4.352873802E0,-1.525068283E-1,4.411203268E0
2.815834116E0,9.820480347E-1,-4.954342842E0,-1.962616444E-1,5.054547455E0
2.820782398E0,1.318994284E0,-5.560577393E0,-2.607185841E-1,5.720816466E0
2.825730627E0,1.742589474E0,-6.052193642E0,-4.024550915E-1,6.310914042E0
2.830678856E0,2.182752848E0,-6.407905579E0,-5.849676132E-1,6.794692856E0
2.835627085E0,2.539979935E0,-6.580490112E0,-8.401560783E-1,7.103535065E0
2.840575314E0,2.799984932E0,-6.529631615E0,-1.129344940E0,7.193846303E0
2.845523544E0,2.929094315E0,-6.184316635E0,-1.532693624E0,7.012454313E0
2.850471773E0,2.928319931E0,-5.437347412E0,-1.947936058E0,6.475666714E0
2.855420002E0,2.898746967E0,-4.298743248E0,-2.187303066E0,5.627274846E0
2.860368127E0,2.870027542E0,-2.663324356E0,-2.227496147E0,4.504674661E0
2.865316408E0,2.760772705E0,-9.472112656E-1,-1.939953327E0,3.504638929E0
2.870264637E0,2.494505405E0,6.301450729E-1,-1.236888885E0,2.854738893E0
2.875212866E0,2.138790131E0,1.988061905E0,-2.353489399E-1,2.929539637E0
2.880161096E0,1.777943850E0,3.112937927E0,9.571695328E-1,3.710477110E0
2.885109325E0,1.460188389E0,3.990956783E0,2.162634134E0,4.768319681E0
2.890057554E0,1.347781897E0,4.586850643E0,3.310741901E0,5.815215112E0
2.895005783E0,1.444956303E0,4.881865501E0,4.270331860E0,6.645016455E0
2.899954012E0,1.659202456E0,4.921940327E0,5.067888260E0,7.256854745E0
2.904902137E0,2.017616749E0,4.891350269E0,5.764315605E0,7.824539552E0
2.909850419E0,2.365715504E0,4.629809380E0,6.134076595E0,8.041059657E0
2.914798648E0,2.606861830E0,4.106174946E0,6.225605011E0,7.900288541E0
2.919746877E0,2.663941383E0,3.322853565E0,5.841160297E0,7.228906773E0
2.924695106E0,2.537424088E0,2.437725544E0,5.241425514E0,6.312968260E0
2.929643335E0,2.215758324E0,1.529649734E0,4.523682594E0,5.264324978E0
2.934591564E0,1.633389235E0,6.463727951E-1,3.705306530E0,4.100616376E0
2.939539794E0,8.092649579E-1,-9.746742249E-2,2.900918961E0,3.013260773E0
2.944488023E0,-9.682440758E-2,-6.423311234E-1,2.262773037E0,2.354167805E0
2.949436148E0,-1.076351166E0,-1.017169952E0,1.639128089E0,2.209051252E0
2.954384429E0,-1.839547396E0,-1.179172516E0,1.127322197E0,2.458706526E0
2.959332658E0,-2.479148865E0,-1.147710800E0,7.856639028E-1,2.842654911E0
2.964280887E0,-2.912065029E0,-9.661121368E-1,7.477265596E-1,3.157940849E0
2.969229116E0,-3.084116936E0,-7.515516281E-1,9.088072777E-1,3.301899119E0
2.974177346E0,-3.065195560E0,-5.159845352E-1,1.081508040E0,3.291097614E0
2.979125575E0,-2.897175550E0,-2.521696091E-1,1.635575652E0,3.336513659E0
2.984073804E0,-2.635464668E0,1.363658905E-2,2.346843481E0,3.528956545E0
2.989022033E0,-2.211677551E0,2.359104156E-1,3.089295387E0,3.806693750E0
2.993970158E0,-1.719464064E0,3.907909393E-1,3.709590435E0,4.107351387E0
2.998918439E0,-1.011645913E0,5.116930008E-1,3.923115253E0,4.083636917E0
3.003866669E0,-2.492696643E-1,5.149707794E-1,4.046951294E0,4.087192807E0
3.008814898E0,3.734139204E-1,4.078350067E-1,3.924098015E0,3.962866712E0
3.013763127E0,1.254947305E0,4.295482635E-1,2.956321716E0,3.240253468E0
3.018711356E0,1.810349226E0,9.939956665E-2,2.164409637E0,2.823457751E0
3.023659585E0,2.145795822E0,-2.521362305E-1,1.595783114E0,2.685988857E0
3.028607710E0,2.271826982E0,-5.413417816E-1,1.037230015E0,2.555405030E0
3.033555991E0,2.451569080E0,-8.566560745E-1,2.683616281E-1,2.610760148E0
3.038504221E0,2.598395348E0,-9.612741470E-1,-3.075362742E-1,2.787523081E0
3.043452450E0,2.674727917E0,-1.006120682E0,-7.011105418E-1,2.942448682E0
3.048400679E0,2.625845432E0,-9.410762787E-1,-9.607878923E-1,2.950220699E0
3.053348908E0,2.362363815E0,-8.476715088E-1,-1.063381195E0,2.725819023E0
3.058297137E0,2.033006191E0,-7.498464584E-1,-1.066972971E0,2.415329213E0
3.063245366E0,1.829437137E0,-6.643571854E-1,-9.623349905E-1,2.171243731E0
3.068193596E0,1.705702066E0,-5.409469604E-1,-8.314027190E-1,1.973138017E0
3.073141721E0,1.556092858E0,-4.250545502E-1,-4.352093339E-1,1.670779315E0
3.078090002E0,1.421380043E0,-3.859930038E-1,-3.745155409E-3,1.472863148E0
3.083038231E0,1.369621515E0,-3.661603928E-1,4.179927409E-1,1.478057665E0
3.087986460E0,1.365155935E0,-3.225288391E-1,8.589323759E-1,1.644822302E0
3.092934689E0,1.342934370E0,-2.455224991E-1,1.236119270E0,1.841669045E0
3.097882919E0,1.337042093E0,-7.070159912E-2,1.568596482E0,2.062322768E0
3.102831148E0,1.166083813E0,-2.189083099E-1,1.759142160E0,2.121851420E0
3.107779377E0,1.045532584E0,-3.573799133E-1,2.010667324E0,2.294262817E0
3.112727502E0,9.328156710E-1,-5.531005859E-1,2.184190750E0,2.438596844E0
3.117675783E0,7.541715503E-1,-5.239410400E-1,2.260687590E0,2.440081416E0
3.122624012E0,5.890728235E-1,-5.045585632E-1,2.270747662E0,2.399558517E0
3.127572241E0,4.039528370E-1,-4.949388504E-1,2.264237881E0,2.352640121E0
3.132520471E0,2.492132187E-1,-4.353446960E-1,2.183115959E0,2.240006144E0
3.137468700E0,3.428429365E-2,-2.852706909E-1,2.053321123E0,2.073326413E0
3.142416929E0,-2.051195502E-1,-1.380901337E-1,1.958093405E0,1.973644521E0
3.147365158E0,-3.638314009E-1,3.966426849E-2,1.904776931E0,1.939618957E0
3.152313283E0,-5.212177038E-1,1.499557495E-1,1.778511405E0,1.859370173E0
3.157261564E0,-6.280839443E-1,2.384061813E-1,1.658821344E0,1.789696958E0
3.162209794E0,-5.466017127E-1,3.720359802E-1,1.610224485E0,1.740691557E0
3.167158023E0,-5.215293169E-1,4.576225281E-1,1.609072208E0,1.752291237E0
3.172106252E0,-6.029639840E-1,5.359077454E-1,1.388093710E0,1.605480248E0
3.177054481E0,-6.307545304E-1,5.734510422E-1,1.145979404E0,1.428273843E0
3.182002710E0,-6.149013042E-1,6.397047043E-1,8.927485943E-1,1.258700034E0
3.186950835E0,-6.084831357E-1,7.274265289E-1,7.661023140E-1,1.219144715E0
3.191899116E0,-6.187784672E-1,7.936010361E-1,5.918570161E-1,1.167469110E0
3.196847346E0,-5.904416442E-1,8.955650330E-1,5.058973432E-1,1.185997549E0
3.201795575E0,-6.595898271E-1,1.059550285E0,4.581034780E-1,1.329497779E0
3.206743804E0,-7.310525775E-1,1.051133156E0,4.064207673E-1,1.343315533E0
3.211692033E0,-7.512698770E-1,1.035457611E0,5.235176086E-1,1.382262486E0
3.216640262E0,-9.165820479E-1,8.452157974E-1,4.720936418E-1,1.333185959E0
3.221588491E0,-1.007795334E0,7.220315933E-1,3.965070248E-1,1.301613951E0
3.226536721E0,-1.123361111E0,6.729764938E-1,3.372448683E-1,1.352246888E0
3.231484846E0,-1.195397377E0,6.501293182E-1,3.715589046E-1,1.410566921E0
3.236433127E0,-1.155344725E0,5.865621567E-1,2.935792208E-1,1.328557622E0
3.241381356E0,-1.165826797E0,5.444850922E-1,2.182697058E-1,1.305089193E0
3.246329585E0,-1.179060578E0,4.689550400E-1,7.680857182E-2,1.271220765E0
3.251277814E0,-1.214108348E0,3.218002319E-1,-2.189551592E-1,1.274972875E0
3.256226044E0,-1.270718575E0,2.154035568E-1,-5.091853738E-1,1.385782859E0
3.261174273E0,-1.348704100E0,1.688423157E-1,-7.506909370E-1,1.552754765E0
3.266122502E0,-1.457232714E0,1.962804794E-1,-8.843048811E-1,1.715822931E0
3.271070627E0,-1.526285887E0,2.544965744E-1,-1.015648961E0,1.850907866E0
3.276018908E0,-1.620753050E0,2.382802963E-1,-1.075442314E0,1.959641324E0
3.280967137E0,-1.647956133E0,2.026834488E-1,-1.011747360E0,1.944343775E0
3.285915366E0,-1.563004255E0,1.669797897E-1,-9.675050378E-1,1.845787244E0
3.290863596E0,-1.495041013E0,1.098098755E-1,-1.068259716E0,1.840756545E0
3.295811825E0,-1.462482452E0,6.940555573E-2,-1.053321123E0,1.803651142E0
3.300760054E0,-1.420233250E0,-2.051668167E-1,-1.096985102E0,1.806248106E0
3.305708179E0,-1.260811448E0,-4.291076660E-1,-1.070319533E0,1.708614292E0
3.310656460E0,-1.097100735E0,-6.142530441E-1,-1.063278317E0,1.646662566E0
3.315604689E0,-9.006715417E-1,-6.770658493E-1,-1.076446056E0,1.558320732E0
3.320552919E0,-6.778923869E-1,-7.085371017E-1,-1.231289029E0,1.574050694E0
3.325501148E0,-3.862875104E-1,-6.203193665E-1,-1.310642242E0,1.500598962E0
3.330449377E0,-7.829332352E-2,-4.579677582E-1,-1.383659601E0,1.459581517E0
3.335397606E0,1.475692689E-1,-3.197612762E-1,-1.465807915E0,1.507520085E0
3.340345835E0,2.717089057E-1,-1.769485474E-1,-1.506894588E0,1.541385033E0
3.345293960E0,3.606372476E-1,-2.239704132E-2,-1.524052978E0,1.566300843E0
3.350242241E0,3.573944569E-1,1.701660156E-1,-1.574570894E0,1.623564219E0
3.355190471E0,2.565609813E-1,2.954969406E-1,-1.507994413E0,1.557943879E0
3.360138700E0,1.588587463E-1,3.368806839E-1,-1.334377050E0,1.385383272E0
3.365086929E0,-7.371962070E-3,2.467346191E-1,-1.227754474E0,1.252323187E0
3.370035158E0,-1.313545108E-1,1.591024399E-1,-1.109015226E0,1.128043601E0
3.374983387E0,-2.850946784E-1,8.586406708E-2,-9.618341923E-1,1.006864751E0
3.379931616E0,-4.346162975E-1,-3.270626068E-2,-7.762441635E-1,8.902336923E-1
3.384879741E0,-5.512349606E-1,-8.898735046E-2,-6.958123446E-1,8.921510798E-1
3.389828023E0,-6.915655732E-1,-1.833648682E-1,-7.005897760E-1,1.001354908E0
3.394776252E0,-9.008655548E-1,-3.851356506E-1,-6.614731550E-1,1.182131529E0
3.399724481E0,-1.032471657E0,-4.408388138E-1,-5.646350384E-1,1.256642076E0
3.404672710E0,-1.103119850E0,-3.576745987E-1,-4.690526724E-1,1.250925630E0
3.409620939E0,-1.180395007E0,-5.256528854E-1,-6.121847630E-1,1.429829889E0
3.414569169E0,-1.018520355E0,-5.021104813E-1,-5.871826410E-1,1.278390435E0
3.419517294E0,-8.688677549E-1,-5.408668518E-1,-4.092926979E-1,1.102265231E0
3.424465575E0,-7.191447020E-1,-6.608934402E-1,-3.891869783E-1,1.051387534E0
3.429413804E0,-4.931216240E-1,-7.257032394E-1,-4.903359413E-1,1.005108682E0
3.434362033E0,-2.406038344E-1,-8.930959702E-1,-6.262021065E-1,1.116977930E0
3.439310262E0,-5.466708541E-2,-1.024261475E0,-8.780413866E-1,1.350206182E0
3.444258491E0,2.060098350E-1,-9.804506302E-1,-1.096852779E0,1.485533409E0
3.449206721E0,4.616798460E-1,-6.831064224E-1,-1.235301375E0,1.485177482E0
3.454154846E0,7.360104918E-1,-6.896257401E-1,-1.379643679E0,1.709009007E0
3.459103127E0,9.856897593E-1,-6.265535355E-1,-1.496076822E0,1.897998813E0
3.464051356E0,1.120225072E0,-5.011444092E-1,-1.608484507E0,2.023183714E0
3.468999585E0,1.113415837E0,-3.565235138E-1,-1.728853464E0,2.087040523E0
3.473947814E0,1.165848017E0,-1.832284927E-1,-1.685364842E0,2.057481210E0
3.478896044E0,1.186355829E0,4.954051971E-2,-1.462535501E0,1.883853632E0
3.483844273E0,1.027726531E0,1.792459488E-1,-1.141439676E0,1.546362010E0
3.488792502E0,6.435744762E-1,1.365375519E-1,-7.995548248E-1,1.035431566E0
3.493740627E0,2.565590739E-1,1.201610565E-1,-5.346467495E-1,6.050689090E-1
3.498688908E0,-1.141603515E-1,1.851272583E-1,-3.965907097E-1,4.523150214E-1
3.503637137E0,-4.452450871E-1,2.381877899E-1,-4.803721905E-1,6.969462334E-1
3.508585366E0,-7.277675271E-1,3.224363327E-1,-7.017868757E-1,1.061185931E0
3.513533596E0,-1.000245571E0,3.638067245E-1,-9.598264694E-1,1.433217843E0
3.518481825E0,-1.229364157E0,3.264551163E-1,-1.178132772E0,1.733754885E0
3.523430054E0,-1.510118484E0,1.794166565E-1,-1.347268939E0,2.031694310E0
3.528378179E0,-1.655756116E0,1.116237640E-1,-1.410346746E0,2.177858151E0
3.533326460E0,-1.855574489E0,-1.113462448E-1,-1.252843499E0,2.241689430E0
3.538274689E0,-1.862858772E0,-8.290290833E-2,-1.069000840E0,2.149390261E0
3.543222919E0,-2.171935558E0,-6.306209564E-1,-8.112977743E-1,2.402746541E0
3.548171148E0,-2.501929760E0,-1.416465759E0,-3.789762259E-1,2.899939784E0
3.553119377E0,-2.778371811E0,-2.172492981E0,-7.315158844E-3,3.526914967E0
3.558067606E0,-2.929219246E0,-2.912926674E0,3.402733803E-1,4.145027524E0
3.563015835E0,-3.029404640E0,-3.475254059E0,5.298800468E-1,4.640631004E0
3.567963960E0,-3.038370371E0,-3.826054573E0,4.024238586E-1,4.902278355E0
3.572912241E0,-2.871182442E0,-3.948758125E0,1.166415215E-2,4.882265396E0
3.577860471E0,-2.520899773E0,-3.747790337E0,-5.452276468E-1,4.549520992E0
3.582808700E0,-2.029127121E0,-3.216107368E0,-1.130201578E0,3.967122268E0
3.587756929E0,-1.556747913E0,-2.789249420E0,-1.587473869E0,3.566994488E0
3.592705158E0,-1.238653183E0,-2.579467773E0,-1.893167973E0,3.431034928E0
3.597653283E0,-1.235208154E0,-2.526740074E0,-1.937489390E0,3.415262760E0
3.602601564E0,-1.500078678E0,-2.490044594E0,-1.819830537E0,3.429626992E0
3.607549794E0,-1.934782386E0,-2.498040199E0,-1.678865075E0,3.578012809E0
3.612498023E0,-2.349432945E0,-2.534061432E0,-1.522273302E0,3.776058595E0
3.617446252E0,-2.679250002E0,-2.540590286E0,-1.433044434E0,3.960630748E0
3.622394481E0,-2.840755224E0,-2.536984444E0,-1.418874741E0,4.064404734E0
3.627342710E0,-2.903275967E0,-2.554272652E0,-1.397710562E0,4.111801908E0
3.632290939E0,-2.743009567E0,-2.374906540E0,-1.325961232E0,3.862959455E0
3.637239064E0,-2.258568287E0,-1.783981323E0,-1.244014263E0,3.135489046E0
3.642187346E0,-2.279752254E0,-1.829375267E0,-1.070755482E0,3.112940975E0
3.647135575E0,-2.233592272E0,-1.757255554E0,-8.042376637E-1,2.953587605E0
3.652083804E0,-2.134072781E0,-1.611056328E0,-5.291588902E-1,2.725761959E0
3.657032033E0,-1.979031324E0,-1.414835930E0,-3.360314369E-1,2.455858876E0
3.661980262E0,-1.797079563E0,-1.178545952E0,-2.741051912E-1,2.166471595E0
3.666928491E0,-1.622083068E0,-9.262657166E-1,-1.330835819E-1,1.872653971E0
3.671876616E0,-1.442735553E0,-7.610492706E-1,2.115142345E-2,1.631296800E0
3.676824898E0,-1.211673617E0,-5.775508881E-1,3.819465637E-4,1.342280943E0
3.681773127E0,-9.941645861E-1,-4.140233994E-1,-2.061728239E-1,1.096487954E0
3.686721356E0,-8.590503931E-1,-2.799930573E-1,-5.565574765E-1,1.061187973E0
3.691669585E0,-7.581149340E-1,-1.922035217E-1,-9.133657217E-1,1.202463051E0
3.696617814E0,-7.095031738E-1,-1.028995514E-1,-1.132742286E0,1.340555168E0
3.701566044E0,-7.022063732E-1,-6.248950958E-2,-1.124727130E0,1.327407189E0
3.706514273E0,-7.136333585E-1,-9.022521973E-2,-8.786032200E-1,1.135498471E0
3.711462398E0,-6.259647608E-1,-1.598749161E-1,-4.985644221E-1,8.160627142E-1
3.716410679E0,-3.343440294E-1,-2.523984909E-1,-1.687173247E-1,4.516153938E-1
3.721358908E0,3.727720678E-2,-2.841014862E-1,1.753897369E-1,3.359535748E-1
3.726307137E0,3.093588054E-1,-3.531036377E-1,5.364108086E-1,7.128264901E-1
3.731255366E0,4.347439110E-1,-4.234104156E-1,1.127905250E0,1.280800102E0
3.736203596E0,4.940482378E-1,-5.259714127E-1,1.831197500E0,1.968251476E0
3.741151721E0,5.805702806E-1,-7.131834030E-1,2.387294054E0,2.558293438E0
3.746100002E0,5.496332645E-1,-9.250173569E-1,2.820267677E0,3.018553231E0
3.751048231E0,4.077335298E-1,-1.197209358E0,3.155018568E0,3.399073262E0
3.755996460E0,9.207713604E-2,-1.445957184E0,3.311542034E0,3.614634286E0
3.760944689E0,-1.757801622E-1,-1.707154274E0,3.243431330E0,3.669485137E0
3.765892919E0,-3.399678469E-1,-1.990303993E0,3.369823456E0,3.928434580E0
3.770841148E0,-4.875246882E-1,-2.259468079E0,3.609508276E0,4.286190186E0
3.775789273E0,-6.974568367E-1,-2.469293594E0,3.705274105E0,4.506984922E0
3.780737554E0,-8.861010075E-1,-2.588827133E0,3.626892090E0,4.543296947E0
3.785685783E0,-1.040801644E0,-2.575343132E0,3.440641403E0,4.421953593E0
3.790634012E0,-1.195059776E0,-2.496074677E0,3.006079197E0,4.085959960E0
3.795582241E0,-1.402964234E0,-2.360689163E0,2.750983715E0,3.887039152E0
3.800530471E0,-1.721795917E0,-2.260100365E0,2.820487976E0,4.003471901E0
3.805478700E0,-1.914410114E0,-2.115335464E0,2.764192581E0,3.972451490E0
3.810426825E0,-1.949947119E0,-1.911934853E0,2.545234203E0,3.733096007E0
3.815375106E0,-1.945200443E0,-1.664109230E0,2.301222801E0,3.442192713E0
3.820323335E0,-2.002765656E0,-1.395612717E0,2.136411667E0,3.243926623E0
3.825271564E0,-2.076907635E0,-1.178149223E0,2.124827862E0,3.196322005E0
3.830219794E0,-2.148151636E0,-9.660015106E-1,1.904403090E0,3.028938015E0
3.835168023E0,-2.144769430E0,-7.256069183E-1,1.640393019E0,2.795966839E0
3.840116252E0,-2.100339651E0,-4.424896240E-1,1.480694056E0,2.607619336E0
3.845064377E0,-2.105183601E0,-2.411260605E-1,1.332539320E0,2.503118218E0
3.850012658E0,-2.118978739E0,-6.387901306E-2,1.279340506E0,2.476058067E0
3.854960887E0,-2.115060329E0,1.037063599E-1,1.347178340E0,2.509805707E0
3.859909116E0,-2.096570492E0,2.114439011E-1,1.533905029E0,2.606373149E0
3.864857346E0,-2.077496767E0,2.928800583E-1,1.739096045E0,2.725110383E0
3.869805575E0,-2.024723291E0,3.623495102E-1,1.912980914E0,2.808967346E0
3.874753804E0,-1.916194558E0,3.863296509E-1,1.998470545E0,2.795520828E0
3.879702033E0,-1.826349854E0,3.888530731E-1,2.170182228E0,2.862944534E0
3.884650158E0,-1.755567193E0,3.268842697E-1,2.507217407E0,3.078150195E0
3.889598439E0,-1.686893702E0,2.338552475E-1,2.823348284E0,3.297210058E0
3.894546669E0,-1.641975403E0,1.312036514E-1,3.095198870E0,3.506216432E0
3.899494898E0,-1.527994394E0,6.696224213E-2,3.288877010E0,3.627114942E0
3.904443127E0,-1.426852703E0,-9.369850159E-3,3.517839432E0,3.796207410E0
3.909391356E0,-1.326685667E0,-7.131576538E-2,3.736180782E0,3.965378625E0
3.914339481E0,-1.155534506E0,-6.873035431E-2,3.728869438E0,3.904414315E0
3.919287762E0,-1.054794073E0,-1.338100433E-2,3.691565752E0,3.839326411E0
3.924235991E0,-9.331550598E-1,1.536369324E-3,3.678912401E0,3.795415284E0
3.929184221E0,-8.606755137E-1,6.729698181E-2,3.697294712E0,3.796745898E0
3.934132450E0,-7.674868703E-1,1.743659973E-1,3.679443359E0,3.762677641E0
3.939080679E0,-7.281249166E-1,3.156156540E-1,3.622986555E0,3.708882677E0
3.944028908E0,-6.346053481E-1,5.128746033E-1,3.507900715E0,3.601545742E0
3.948977033E0,-5.374761820E-1,7.564897537E-1,3.320178270E0,3.447425292E0
3.953925314E0,-4.754076004E-1,1.046542168E0,3.219979048E0,3.418995169E0
3.958873544E0,-2.552040815E-1,1.359134674E0,3.078167915E0,3.374536102E0
3.963821773E0,-9.490835667E-2,1.634354115E0,2.978958845E0,3.399164128E0
3.968770002E0,-5.153667927E-2,1.886675835E0,2.929251909E0,3.484640366E0
3.973718231E0,1.141231656E-1,2.027563572E0,2.859966040E0,3.507626531E0
3.978666460E0,3.206953406E-1,2.174304485E0,2.799906254E0,3.559483183E0
3.983614585E0,4.511479735E-1,2.269383430E0,2.754143953E0,3.597074445E0
3.988562866E0,7.251795530E-1,2.262884140E0,2.683941126E0,3.584699427E0
3.993511096E0,1.021036863E0,2.197803497E0,2.644685268E0,3.587090277E0
3.998459325E0,1.264070988E0,2.107815742E0,2.672031164E0,3.630497653E0
4.003407554E0,1.471654177E0,1.992657185E0,2.718677998E0,3.677996564E0
4.008355679E0,1.653388739E0,1.861906052E0,2.712904215E0,3.682422809E0
4.013303960E0,1.836122990E0,1.780057907E0,2.662006140E0,3.691372438E0
4.018252189E0,1.917119265E0,1.699071407E0,2.685964108E0,3.711683325E0
4.023200419E0,2.068739176E0,1.609259129E0,2.593682528E0,3.687354848E0
4.028148648E0,2.176496267E0,1.577569008E0,2.531073570E0,3.692180033E0
4.033096877E0,2.292985678E0,1.505736351E0,2.417212009E0,3.656219246E0
4.038045106E0,2.339746475E0,1.455986977E0,2.299820662E0,3.589357424E0
4.042993335E0,2.398054838E0,1.392314911E0,2.097919226E0,3.477135732E0
4.047941460E0,2.496885061E0,1.281062126E0,1.847925425E0,3.360116598E0
4.052889741E0,2.569265127E0,1.211003304E0,1.616172910E0,3.267976005E0
4.057837971E0,2.515135050E0,1.174696445E0,1.403125644E0,3.110398307E0
4.062786200E0,2.561749458E0,1.129163742E0,1.131973267E0,3.019757361E0
4.067734429E0,2.562967777E0,1.093391418E0,8.438885212E-1,2.911435463E0
4.072682658E0,2.604715347E0,1.038894653E0,5.885477066E-1,2.865350335E0
4.077630783E0,2.589170456E0,9.964971542E-1,3.163962364E-1,2.792295974E0
4.082579064E0,2.537688732E0,9.997205734E-1,9.190535545E-2,2.729056965E0
4.087527294E0,2.514642000E0,9.882364273E-1,-1.409430504E-1,2.705531476E0
4.092475523E0,2.517388821E0,9.766578674E-1,-3.421239853E-1,2.721792771E0
4.097423752E0,2.566910028E0,9.789876938E-1,-5.105907917E-1,2.794306167E0
4.102371981E0,2.545435905E0,1.002311707E0,-6.006243229E-1,2.800825286E0
4.107320210E0,2.512527704E0,1.027328491E0,-5.688033104E-1,2.773398006E0
4.112268335E0,2.491355419E0,1.018156052E0,-4.987866879E-1,2.737203268E0
4.117216616E0,2.457779169E0,9.937686920E-1,-3.900551796E-1,2.679626411E0
4.122164846E0,2.392686844E0,9.876155853E-1,-3.190882206E-1,2.608093589E0
4.127113075E0,2.274637699E0,9.087972641E-1,-2.524113655E-1,2.462437944E0
4.132061304E0,2.103971481E0,8.601837158E-1,-1.876454353E-1,2.280750497E0
4.137009533E0,1.909590244E0,8.132324219E-1,-2.043423653E-1,2.085578499E0
4.141957762E0,1.701855183E0,7.798166275E-1,-2.689087391E-1,1.891226307E0
4.146905887E0,1.450297713E0,7.913961411E-1,-3.801662922E-1,1.695345899E0
4.151854169E0,1.164918900E0,8.767614365E-1,-5.600972176E-1,1.561875652E0
4.156802398E0,9.057534933E-1,9.741411209E-1,-8.698174953E-1,1.589315195E0
4.161750627E0,5.448158383E-1,1.052680016E0,-1.202371359E0,1.688388699E0
4.166698856E0,8.269967139E-2,1.115368843E0,-1.566520214E0,1.924804528E0
4.171647085E0,-3.819516599E-1,1.179123878E0,-1.972194672E0,2.329328662E0
4.176595210E0,-9.110895991E-1,1.282314301E0,-2.386135578E0,2.857981319E0
4.181543491E0,-1.506636381E0,1.450942993E0,-2.934325218E0,3.603533438E0
4.186491721E0,-2.159237623E0,1.509983063E0,-3.526956558E0,4.402474137E0
4.191439950E0,-2.988260031E0,1.415873528E0,-4.083175659E0,5.254209676E0
4.196388179E0,-3.813039064E0,1.132526398E0,-4.453612328E0,5.971310217E0
4.201336408E0,-4.873352051E0,5.472164154E-1,-4.565133572E0,6.699958996E0
4.206284637E0,-6.066401482E0,-2.801637650E-1,-4.288201332E0,7.434271271E0
4.211232762E0,-6.937911987E0,-1.105659485E0,-3.995687723E0,8.082241398E0
4.216181044E0,-7.630367756E0,-2.034565926E0,-3.551190138E0,8.658690547E0
4.221129273E0,-8.013642311E0,-2.930529594E0,-2.959742785E0,9.031419830E0
4.226077502E0,-8.053894043E0,-3.724273682E0,-2.238437176E0,9.151285412E0
4.231025731E0,-7.573346138E0,-4.190882683E0,-1.486364841E0,8.782274753E0
4.235973960E0,-6.589199543E0,-4.292911530E0,-9.821114540E-1,7.925350650E0
4.240922189E0,-5.242045403E0,-4.016703606E0,-1.159687519E0,6.705059508E0
4.245870314E0,-3.889349937E0,-3.472657204E0,-1.547073364E0,5.438733951E0
4.250818596E0,-2.851636171E0,-2.768447876E0,-1.790502787E0,4.359132107E0
4.255766825E0,-2.062562227E0,-1.847925186E0,-1.769204617E0,3.286194670E0
4.260715054E0,-1.449887872E0,-8.081350327E-1,-1.438845158E0,2.196709462E0
4.265663283E0,-1.011246324E0,3.377971649E-1,-8.058230877E-1,1.336441881E0
4.270611512E0,-6.701059937E-1,1.456910133E0,-1.602425575E-1,1.611616225E0
4.275559741E0,-1.763218343E-1,2.317788601E0,2.838652134E-1,2.341754224E0
4.280507866E0,4.305388927E-1,2.798899174E0,6.675665379E-1,2.909440738E0
4.285456148E0,1.054262161E0,2.742873192E0,1.196736097E0,3.172853501E0
4.290404377E0,1.508871078E0,2.319905281E0,1.787988544E0,3.294776999E0
4.295352606E0,1.783285022E0,1.616139889E0,2.346390247E0,3.361184434E0
4.300300835E0,2.062916756E0,7.485656738E-1,2.684096813E0,3.467037902E0
4.305248960E0,2.413029432E0,-2.304162979E-1,2.725621700E0,3.647576780E0
4.310197241E0,2.788381815E0,-1.314484596E0,2.430629730E0,3.925672399E0
4.315145471E0,3.179221153E0,-2.454006195E0,2.038025379E0,4.503680827E0
4.320093700E0,3.545885563E0,-3.510920525E0,1.722041965E0,5.278758934E0
4.325041929E0,3.934752941E0,-4.526471138E0,1.543887496E0,6.193126050E0
4.329990158E0,4.270526886E0,-5.427122116E0,1.466824651E0,7.059931225E0
4.334938387E0,4.511350632E0,-6.182489395E0,1.363446832E0,7.773959538E0
4.339886512E0,4.710129261E0,-6.846288681E0,1.097891808E0,8.382264180E0
4.344834794E0,4.852179050E0,-7.388113976E0,7.104854584E-1,8.867505807E0
4.349783023E0,4.909362316E0,-7.756158829E0,4.830894470E-1,9.192019013E0
4.354731252E0,5.009933472E0,-7.862410545E0,3.278644085E-1,9.328688442E0
4.359679481E0,5.223957062E0,-7.573292732E0,2.564637661E-1,9.203817896E0
4.364627710E0,5.279934883E0,-6.871771812E0,2.589600086E-1,8.669833937E0
4.369575835E0,5.482894421E0,-5.767326355E0,2.088577747E-1,7.960389820E0
4.374524116E0,5.789852619E0,-4.249879837E0,2.011227608E-1,7.185006774E0
4.379472346E0,5.910068035E0,-2.555600166E0,3.448936939E-1,6.448174009E0
4.384420575E0,5.578052521E0,-9.369564056E-1,8.494122028E-1,5.719620470E0
4.389368804E0,4.891853809E0,6.193675995E-1,1.646347761E0,5.198491211E0
4.394317033E0,4.094612122E0,2.155205250E0,2.617870092E0,5.316389933E0
4.399265158E0,3.390913486E0,3.554636478E0,3.574259996E0,6.075283474E0
4.404213439E0,2.757026911E0,4.626998901E0,4.371042252E0,6.936593298E0
4.409161669E0,2.093266249E0,5.300704002E0,4.891967297E0,7.510697074E0
4.414109898E0,1.361334682E0,5.530392647E0,5.095309258E0,7.642031888E0
4.419058127E0,6.515835524E-1,5.428448677E0,5.161972523E0,7.519213821E0
4.424006356E0,5.404736847E-3,5.083048344E0,5.294518948E0,7.339573595E0
4.428954481E0,-6.199344993E-1,4.570115089E0,5.459106445E0,7.146475628E0
4.433902762E0,-1.157675862E0,3.920140743E0,5.648127556E0,6.972019918E0
4.438850991E0,-1.589120388E0,3.093873501E0,5.809865952E0,6.771403047E0
4.443799221E0,-1.873309612E0,2.122088432E0,5.967558861E0,6.604869944E0
4.448747450E0,-2.081089020E0,1.035511017E0,6.151789188E0,6.576300236E0
4.453695679E0,-2.200980663E0,-1.492156982E-1,6.315728188E0,6.689918067E0
4.458643908E0,-2.311598301E0,-1.434631348E0,6.448577881E0,6.998986390E0
4.463592033E0,-2.393613815E0,-2.715162277E0,6.643106461E0,7.565206986E0
4.468540314E0,-2.336054087E0,-3.775459290E0,6.791282654E0,8.113739066E0
4.473488544E0,-2.126587391E0,-4.565444946E0,6.701538086E0,8.383094548E0
4.478436773E0,-1.761147380E0,-5.039606094E0,6.210146904E0,8.189334176E0
4.483385002E0,-1.367428064E0,-5.164608955E0,5.462585926E0,7.640869726E0
4.488333127E0,-1.028915167E0,-4.954724312E0,4.662923336E0,6.881192736E0
4.493281408E0,-7.578862906E-1,-4.493464470E0,4.033782005E0,6.085804124E0
4.498229637E0,-3.666479588E-1,-3.902733803E0,3.418077707E0,5.200866954E0
4.503177866E0,2.690191269E-1,-3.110751152E0,2.680935860E0,4.115405339E0
4.508126096E0,9.871217012E-1,-2.194396973E0,1.904043674E0,3.068414842E0
4.513074325E0,1.635278106E0,-1.189773560E0,1.221461177E0,2.362554341E0
4.518022554E0,1.994710326E0,-3.175687790E-1,9.484431744E-1,2.231426376E0
4.522970679E0,2.234156132E0,3.045816422E-1,5.585515499E-1,2.322972973E0
4.527918960E0,2.832152843E0,1.123717308E0,-3.313624859E-1,3.064903166E0
4.532867189E0,2.771761894E0,1.427015305E0,-5.081026554E-1,3.158671396E0
4.537815419E0,2.529979229E0,1.482995033E0,7.506299019E-2,2.933547958E0
4.542763544E0,2.417052746E0,1.416402817E0,7.809091806E-1,2.908291606E0
4.547711825E0,2.518454790E0,1.229919434E0,1.247752905E0,3.067931494E0
4.552660054E0,2.708436489E0,1.038505554E0,1.621825099E0,3.323317417E0
4.557608283E0,2.869661331E0,8.565330505E-1,1.867394447E0,3.529272878E0
4.562556512E0,2.844232321E0,5.763950348E-1,2.087513447E0,3.574856797E0
4.567504741E0,2.711572170E0,2.794351578E-1,2.273076057E0,3.549307313E0
4.572452971E0,2.502908945E0,-7.959175110E-2,2.430593967E0,3.489795849E0
4.577401096E0,2.225902319E0,-4.098281860E-1,2.603546381E0,3.449790433E0
4.582349377E0,1.864192009E0,-7.304077148E-1,2.734394550E0,3.389044236E0
4.587297606E0,1.602841377E0,-1.024592400E0,2.782402515E0,3.370556901E0
4.592245835E0,1.320096493E0,-1.306813240E0,2.747941732E0,3.316865894E0
4.597193960E0,1.069398999E0,-1.512480736E0,2.671475887E0,3.250845369E0
4.602142241E0,8.870595694E-1,-1.672801018E0,2.593786478E0,3.211365164E0
4.607090471E0,7.042668462E-1,-1.761504173E0,2.509924889E0,3.146205920E0
4.612038700E0,5.018183589E-1,-1.742779732E0,2.458007336E0,3.054652668E0
4.616986929E0,3.559191525E-1,-1.592888832E0,2.352231979E0,2.863034851E0
4.621935158E0,2.709487677E-1,-1.398060799E0,2.164005756E0,2.590542056E0
4.626883387E0,2.201457173E-1,-1.139195442E0,1.938816905E0,2.259478122E0
4.631831512E0,1.651168764E-1,-8.785209656E-1,1.769923329E0,1.982849279E0
4.636779794E0,3.684827685E-2,-6.804943085E-1,1.697198749E0,1.828910575E0
4.641728023E0,-9.041738510E-2,-5.713138580E-1,1.768176317E0,1.860382304E0
4.646676252E0,-1.977351904E-1,-5.388841629E-1,1.877325296E0,1.963121396E0
4.651624481E0,-2.635429204E-1,-4.659233093E-1,1.995704889E0,2.066247179E0
4.656572606E0,-3.139869273E-1,-4.098539352E-1,2.063366175E0,2.126980961E0
4.661520887E0,-2.870965302E-1,-3.443393707E-1,2.104176283E0,2.151406946E0
4.666469116E0,-2.163361013E-1,-3.219423294E-1,2.112934351E0,2.148241081E0
4.671417346E0,-1.000355184E-1,-2.947463989E-1,2.134974241E0,2.157544335E0
4.676365575E0,8.628463745E-2,-2.580499649E-1,2.115520954E0,2.132947194E0
4.681313700E0,1.817518771E-1,-2.667884827E-1,2.030332088E0,2.055835166E0
4.686261981E0,3.228792250E-1,-2.445430756E-1,1.902056575E0,1.944703454E0
4.691210210E0,4.925688803E-1,-2.654085159E-1,1.682485342E0,1.773082826E0
4.696158439E0,6.359364986E-1,-2.314205170E-1,1.449152231E0,1.599378903E0
4.701106669E0,7.978005409E-1,-1.856365204E-1,1.163741589E0,1.423109661E0
4.706054898E0,1.018484116E0,-1.280841827E-1,8.505306244E-1,1.333085817E0
4.711003023E0,1.223460197E0,-3.959560394E-2,5.356431007E-1,1.336164735E0
4.715951304E0,1.362574100E0,-1.578330994E-3,1.337195635E-1,1.369120737E0
4.720899533E0,1.536374807E0,2.427577972E-2,-2.808201313E-1,1.562016904E0
4.725847762E0,1.682557344E0,3.801631927E-2,-6.913365126E-1,1.819447892E0
4.730795991E0,1.781963944E0,1.303672791E-3,-1.003498077E0,2.045093052E0
4.735744116E0,1.897332668E0,-1.168413162E-1,-1.100809574E0,2.196657658E0
4.740692398E0,1.943256140E0,-2.686595917E-1,-1.046854973E0,2.223584434E0
4.745640627E0,1.863206506E0,-4.638376236E-1,-9.242760539E-1,2.130955196E0
4.750588856E0,1.840266228E0,-7.001276016E-1,-6.601304412E-1,2.076663345E0
4.755537085E0,1.722207308E0,-9.417581558E-1,-2.704773545E-1,1.981429896E0
4.760485314E0,1.598549247E0,-1.138604164E0,1.872955561E-1,1.971511796E0
4.765433439E0,1.560434341E0,-1.309801102E0,7.049305439E-1,2.155797145E0
4.770381721E0,1.536077023E0,-1.364467621E0,1.252696276E0,2.406356679E0
4.775329950E0,1.570543766E0,-1.228481293E0,1.707004189E0,2.624811862E0
4.780278179E0,1.504365206E0,-8.685007095E-1,2.139503002E0,2.755881211E0
4.785226408E0,1.443461418E0,-3.347873688E-1,2.606553078E0,2.998296582E0
4.790174533E0,1.359167337E0,2.243766785E-1,2.979170322E0,3.282245657E0
4.795122814E0,1.293170094E0,7.302179337E-1,3.245225191E0,3.568892498E0
4.800071044E0,1.142664909E0,1.070331573E0,3.350744247E0,3.698483444E0
4.805019273E0,8.509343266E-1,1.065497398E0,3.083507538E0,3.371556417E0
4.809967502E0,5.124559999E-1,8.689508438E-1,2.617073059E0,2.804774165E0
4.814915627E0,8.450168371E-2,6.721010208E-1,2.169764042E0,2.273045603E0
4.819863908E0,-2.679920197E-1,6.016139984E-1,1.904405355E0,2.015072923E0
4.824812137E0,-5.338852406E-1,6.741161346E-1,1.708240986E0,1.912473079E0
4.829760366E0,-7.881410122E-1,8.105278015E-1,1.595666528E0,1.955574913E0
4.834708596E0,-1.052869439E0,9.461889267E-1,1.454352021E0,2.029518993E0
4.839656825E0,-1.294825077E0,1.023686409E0,1.365520954E0,2.142230921E0
4.844604950E0,-1.581751823E0,1.074192047E0,1.398383141E0,2.368818860E0
4.849553231E0,-1.824561357E0,1.035506248E0,1.475757837E0,2.564987043E0
4.854501460E0,-2.032984018E0,9.173946381E-1,1.529694676E0,2.704552226E0
4.859449689E0,-2.189569950E0,6.650228500E-1,1.642726421E0,2.816917119E0
4.864397919E0,-2.258178711E0,3.411531448E-1,1.847972870E0,2.937815564E0
4.869346044E0,-2.244969368E0,-7.053756714E-2,2.174189329E0,3.126013796E0
4.874294325E0,-2.108970165E0,-5.382661819E-1,2.496501923E0,3.312100163E0
4.879242554E0,-1.713375330E0,-9.778766632E-1,2.736724377E0,3.373656489E0
4.884190783E0,-1.072937489E0,-1.436672211E0,2.682627201E0,3.226718239E0
4.889139012E0,-2.534142733E-1,-1.866832733E0,2.305902719E0,2.977661935E0
4.894087137E0,3.460454941E-1,-2.376223564E0,1.580961704E0,2.875000143E0
4.899035419E0,8.123465180E-1,-2.728368759E0,9.236119986E-1,2.992818417E0
4.903983648E0,1.355486393E0,-2.875818253E0,6.004595757E-1,3.235463751E0
4.908931877E0,2.092744827E0,-2.804728508E0,4.458959103E-1,3.527733845E0
4.913880106E0,2.878317595E0,-2.572864532E0,3.606781960E-1,3.877426058E0
4.918828335E0,3.607026339E0,-2.178333282E0,2.848037481E-1,4.223374015E0
4.923776460E0,4.108209610E0,-1.748338699E0,1.695504189E-1,4.467977367E0
4.928724741E0,4.417046070E0,-1.283063889E0,8.515071869E-2,4.600412978E0
4.933672971E0,4.528717041E0,-8.378200531E-1,1.019735336E-1,4.606692857E0
4.938621200E0,4.479067326E0,-3.934755325E-1,2.987065315E-1,4.506228211E0
4.943569429E0,4.356814384E0,4.028511047E-2,5.318162441E-1,4.389337420E0
4.948517554E0,4.136057377E0,4.995069504E-1,7.689926624E-1,4.236487641E0
4.953465835E0,3.839213848E0,8.932800293E-1,9.260125160E-1,4.049075371E0
4.958414064E0,3.540866375E0,1.186225891E0,1.041527390E0,3.876808720E0
4.963362294E0,3.270567417E0,1.373831749E0,1.138458729E0,3.725602392E0
4.968310523E0,3.035593271E0,1.463860512E0,1.233871460E0,3.588892989E0
4.973258752E0,2.808403969E0,1.485161781E0,1.293809295E0,3.430274167E0
4.978206877E0,2.617631435E0,1.406950951E0,1.216949582E0,3.211303722E0
4.983155158E0,2.359281540E0,1.231712341E0,1.075063705E0,2.870380924E0
4.988103387E0,2.095154524E0,1.050451279E0,1.004426360E0,2.549900524E0
4.993051616E0,1.811449170E0,8.966035843E-1,9.786871672E-1,2.245679108E0
4.997999846E0,1.518047690E0,7.364263535E-1,9.053645134E-1,1.914804812E0
5.002947971E0,1.157711148E0,5.673179626E-1,8.522430658E-1,1.545465308E0
5.007896252E0,8.485617042E-1,3.363971710E-1,5.860984325E-1,1.084772508E0
5.012844481E0,5.166839361E-1,6.264781952E-2,3.209493160E-1,6.114699523E-1
5.017792710E0,2.034258246E-1,-2.395286560E-1,1.190500259E-1,3.360490319E-1
5.022740939E0,-8.155119419E-2,-5.175046921E-1,-3.385186195E-2,5.249834780E-1
5.027689064E0,-2.901350558E-1,-7.833929062E-1,-1.108362675E-1,8.427143491E-1
5.032637346E0,-5.036115646E-1,-9.846963882E-1,-1.616318226E-1,1.117755085E0
5.037585575E0,-6.838912368E-1,-1.028392792E0,-2.715699673E-1,1.264535173E0
5.042533804E0,-8.144204617E-1,-1.003293037E0,-4.063177109E-1,1.354611269E0
5.047482033E0,-9.075750113E-1,-8.546009064E-1,-5.413446426E-1,1.359076573E0
5.052430158E0,-9.946553707E-1,-6.614055634E-1,-5.807716846E-1,1.328191393E0
5.057378439E0,-1.069126129E0,-4.165630341E-1,-5.535671711E-1,1.273967054E0
5.062326669E0,-1.109399319E0,-1.560678482E-1,-6.052732468E-1,1.273373364E0
5.067274898E0,-1.058340073E0,1.248941422E-1,-7.192840576E-1,1.285710625E0
5.072223127E0,-1.099693537E0,3.402090073E-1,-8.736834526E-1,1.445126575E0
5.077171356E0,-1.161808610E0,5.116052628E-1,-9.064166546E-1,1.559849462E0
5.082119481E0,-1.196440816E0,6.751079559E-1,-9.350321293E-1,1.661784120E0
5.087067762E0,-1.222489595E0,8.141937256E-1,-8.383398056E-1,1.691214316E0
5.092015991E0,-1.268052697E0,8.501415253E-1,-6.837680340E-1,1.672793167E0
5.096964221E0,-1.316453934E0,8.454141617E-1,-4.840404987E-1,1.637703047E0
5.101912450E0,-1.333768487E0,9.316530228E-1,-4.376916885E-1,1.684781810E0
5.106860575E0,-1.311340570E0,1.022668839E0,-4.086041451E-1,1.712431894E0
5.111808856E0,-1.270339012E0,1.101831436E0,-3.348133564E-1,1.714611823E0
5.116757085E0,-1.173601866E0,1.159602165E0,-2.360942364E-1,1.666661036E0
5.121705314E0,-1.064384460E0,1.200613976E0,-1.571288109E-1,1.612165519E0
5.126653544E0,-9.161670804E-1,1.215285301E0,-2.673213482E-1,1.545231758E0
5.131601669E0,-7.268629670E-1,1.227348328E0,-5.416287184E-1,1.525803185E0
5.136549950E0,-4.656615257E-1,1.244009972E0,-8.390332460E-1,1.571107334E0
5.141498179E0,-1.232883930E-1,1.289074898E0,-1.046763062E0,1.665120725E0
5.146446408E0,2.476696968E-1,1.312161446E0,-1.274191022E0,1.845716852E0
5.151394637E0,5.488946438E-1,1.334603310E0,-1.558689356E0,2.124138374E0
5.156342762E0,9.383866787E-1,1.306069374E0,-1.825425506E0,2.432810113E0
5.161291044E0,1.248283863E0,1.253000259E0,-1.917277217E0,2.608481202E0
5.166239273E0,1.523725629E0,1.225644112E0,-1.856335402E0,2.696279734E0
5.171187502E0,1.817204952E0,1.178638458E0,-1.669764042E0,2.734873747E0
5.176135731E0,2.068728685E0,1.100128174E0,-1.470671892E0,2.766368773E0
5.181083960E0,2.211462498E0,1.054902077E0,-1.142812014E0,2.703590958E0
5.186032085E0,2.264986992E0,9.976978302E-1,-8.186159134E-1,2.606856162E0
5.190980366E0,2.229981184E0,9.574556351E-1,-4.508810043E-1,2.468366070E0
5.195928596E0,2.088043690E0,8.745746613E-1,-9.501218796E-2,2.265796682E0
5.200876825E0,1.902355909E0,8.042926788E-1,1.102738380E-1,2.068333880E0
5.205825054E0,1.739829898E0,7.441949844E-1,1.245748997E-1,1.896405324E0
5.210773179E0,1.538890362E0,7.086410522E-1,6.822085381E-2,1.695585377E0
5.215721460E0,1.349723220E0,6.854171753E-1,-1.102421284E-1,1.517795375E0
5.220669689E0,1.162290096E0,6.935997009E-1,-1.884486675E-1,1.366569323E0
5.225617919E0,1.050427914E0,7.137994766E-1,-1.704993248E-1,1.281397095E0
5.230566148E0,8.677579165E-1,7.793712616E-1,-1.185598373E-1,1.172382105E0
5.235514273E0,7.384018898E-1,8.375492096E-1,-1.811861992E-2,1.116715861E0
5.240462554E0,5.546231270E-1,9.722061157E-1,1.777347326E-1,1.133305422E0
5.245410783E0,2.596099377E-1,8.893022537E-1,4.949878454E-1,1.050366024E0
5.250359012E0,6.867885590E-2,8.330192566E-1,6.417013407E-1,1.053763957E0
5.255307241E0,-1.154586077E-1,7.770786285E-1,6.713713408E-1,1.033402807E0
5.260255366E0,-3.469479084E-1,5.449819565E-1,6.476329565E-1,9.147713542E-1
5.265203648E0,-5.411788225E-1,2.995862961E-1,5.187425613E-1,8.072919619E-1
5.270151877E0,-7.172868252E-1,1.318931580E-1,2.150598764E-1,7.603597472E-1
5.275100106E0,-7.918704748E-1,1.134853363E-1,-5.515933037E-2,8.018605379E-1
5.280048335E0,-8.485590219E-1,1.176567078E-1,-3.118002415E-1,9.116550363E-1
5.284996564E0,-8.785312176E-1,7.247066498E-2,-6.026370525E-1,1.067820451E0
5.289944689E0,-7.132291794E-1,1.356077194E-1,-8.873596191E-1,1.146513153E0
5.294892971E0,-4.941627979E-1,2.877454758E-1,-1.223296165E0,1.350351006E0
5.299841200E0,-3.487601280E-1,4.328413010E-1,-1.557144642E0,1.653385815E0
5.304789429E0,-1.382892132E-1,5.253601074E-1,-1.886046171E0,1.962727008E0
5.309737658E0,2.722239494E-2,5.484848022E-1,-2.175811052E0,2.244043309E0
5.314685783E0,1.409494877E-1,5.309391022E-1,-2.392434597E0,2.454690691E0
5.319634064E0,2.625122070E-1,4.631938934E-1,-2.471602917E0,2.528296308E0
5.324582294E0,4.392671585E-1,4.216842651E-1,-2.480262280E0,2.553913513E0
5.329530523E0,6.380536556E-1,3.347139359E-1,-2.454277515E0,2.557855353E0
5.334478752E0,6.222517490E-1,2.574329376E-1,-2.341422319E0,2.436334836E0
5.339426877E0,6.315245628E-1,2.450494766E-1,-2.274062872E0,2.372811511E0
5.344375158E0,6.512205601E-1,2.470836639E-1,-2.189414978E0,2.297537051E0
5.349323387E0,6.861197948E-1,2.565784454E-1,-2.186632633E0,2.306069198E0
5.354271616E0,6.568090916E-1,2.733335495E-1,-2.226978540E0,2.337850045E0
5.359219846E0,7.234437466E-1,2.927217484E-1,-2.277843952E0,2.407826810E0
5.364167971E0,7.329010963E-1,3.075752258E-1,-2.427705288E0,2.554505726E0
5.369116252E0,7.068393230E-1,2.319250107E-1,-2.621878386E0,2.725372875E0
5.374064481E0,6.694836617E-1,5.394744873E-2,-2.807512283E0,2.886735859E0
5.379012710E0,6.131632328E-1,-2.095460892E-1,-2.872554302E0,2.944732065E0
5.383960835E0,4.857361317E-1,-5.128393173E-1,-2.776911020E0,2.865340917E0
5.388909116E0,4.189641476E-1,-7.722196579E-1,-2.747689009E0,2.884726858E0
5.393857346E0,2.432758808E-1,-9.638147354E-1,-2.590964317E0,2.775106861E0
5.398805575E0,1.760571003E-1,-1.102035522E0,-2.443700314E0,2.686475315E0
5.403753804E0,2.788594961E-1,-1.165585518E0,-2.329592705E0,2.619800448E0
5.408702033E0,5.324747562E-1,-1.183264732E0,-2.272369146E0,2.616735816E0
5.413650158E0,7.834669352E-1,-1.203127861E0,-2.278545380E0,2.693159137E0
5.418598439E0,1.049186945E0,-1.201190948E0,-2.316719770E0,2.812622164E0
5.423546669E0,1.272151351E0,-1.160840988E0,-2.353000641E0,2.915910300E0
5.428494898E0,1.442923427E0,-1.077400208E0,-2.358355522E0,2.967264732E0
5.433443023E0,1.570752740E0,-9.607143402E-1,-2.300982952E0,2.946991476E0
5.438391304E0,1.676893473E0,-8.921775818E-1,-2.295759201E0,2.979674960E0
5.443339533E0,1.730607271E0,-8.789453506E-1,-2.320521355E0,3.025287724E0
5.448287762E0,1.741586566E0,-9.759349823E-1,-2.384735107E0,3.110069837E0
5.453235991E0,1.636632442E0,-1.137468338E0,-2.435413361E0,3.147004641E0
5.458184221E0,1.414070487E0,-1.360902786E0,-2.458565235E0,3.145821793E0
5.463132346E0,1.060094118E0,-1.569704056E0,-2.455903530E0,3.101488757E0
5.468080627E0,7.069429159E-1,-1.778108597E0,-2.408519030E0,3.076101816E0
5.473028856E0,3.613879681E-1,-1.940812111E0,-2.215852261E0,2.967718678E0
5.477977085E0,2.137160301E-2,-1.997891426E0,-1.926791191E0,2.775707331E0
5.482925314E0,-3.298878670E-1,-1.892063141E0,-1.563326120E0,2.476432412E0
5.487873439E0,-5.279008150E-1,-1.647452354E0,-1.142895460E0,2.073400242E0
5.492821721E0,-5.831955671E-1,-1.271480560E0,-6.397391558E-1,1.538195720E0
5.497769950E0,-3.998672962E-1,-8.051643372E-1,-8.103156090E-2,9.026347978E-1
5.502718179E0,5.402588844E-2,-2.846708298E-1,5.020445585E-1,5.796593971E-1
5.507666304E0,6.336257458E-1,2.945213318E-1,1.002097249E0,1.221647779E0
5.512614585E0,1.242585778E0,8.915529251E-1,1.350402355E0,2.040213850E0
5.517562814E0,1.839766145E0,1.494348526E0,1.595312476E0,2.857068232E0
5.522511044E0,2.425041676E0,1.978556156E0,1.796837568E0,3.608896900E0
5.527459273E0,2.933906078E0,2.325281143E0,1.959475517E0,4.225432709E0
5.532407398E0,3.288165569E0,2.467871189E0,2.040122986E0,4.589610312E0
5.537355679E0,3.478696346E0,2.368522644E0,2.047505856E0,4.680118376E0
5.542303908E0,3.504111290E0,1.965536118E0,1.974201798E0,4.476561281E0
5.547252137E0,3.323615074E0,1.316631317E0,1.884782434E0,4.041328990E0
5.552200366E0,2.838115454E0,5.202846527E-1,1.757856131E0,3.378705910E0
5.557148491E0,2.077430248E0,-2.391548157E-1,1.569845676E0,2.614828275E0
5.562096773E0,1.101396680E0,-8.706722260E-1,1.331034780E0,1.934631323E0
5.567045002E0,-4.762268066E-2,-1.340795517E0,1.106344581E0,1.738964884E0
5.571993231E0,-1.219421625E0,-1.604044914E0,9.411062002E-1,2.223877260E0
5.576941460E0,-2.393396139E0,-1.615104675E0,9.167901278E-1,3.029424422E0
5.581889585E0,-3.427605152E0,-1.443576813E0,1.117066383E0,3.883326975E0
5.586837866E0,-4.290744781E0,-1.127840042E0,1.571845889E0,4.706720030E0
5.591786096E0,-4.844797134E0,-7.470674515E-1,2.189402103E0,5.368766210E0
5.596734325E0,-5.040731907E0,-3.421306610E-1,2.849474907E0,5.800477462E0
5.601682450E0,-4.914182186E0,6.037521362E-2,3.494183540E0,6.030103676E0
5.606630731E0,-4.507750988E0,3.932352066E-1,4.006283760E0,6.043571995E0
5.611578960E0,-3.864612341E0,6.586341858E-1,4.385828972E0,5.882560948E0
5.616527189E0,-3.087114096E0,8.468456268E-1,4.592744827E0,5.598278843E0
5.621475314E0,-2.289601326E0,9.075021744E-1,4.417523861E0,5.057702195E0
5.626423596E0,-1.477897882E0,9.793739319E-1,4.252876282E0,4.607636283E0
5.631371825E0,-8.484967351E-1,9.404373169E-1,3.999114275E0,4.194911685E0
5.636320054E0,-3.935371339E-1,7.622022629E-1,3.556132317E0,3.658128048E0
5.641268283E0,-4.795986414E-2,4.472770691E-1,3.118089676E0,3.150371431E0
5.646216408E0,2.444708943E-1,1.465530396E-1,2.673480272E0,2.688631730E0
5.651164689E0,3.622139096E-1,-1.351547241E-1,2.162559986E0,2.196845786E0
5.656112919E0,3.016636968E-1,-3.762645721E-1,1.685955286E0,1.753573848E0
5.661061148E0,1.073932052E-1,-5.958623886E-1,1.193522692E0,1.338313006E0
5.666009377E0,-9.097564220E-2,-7.126808167E-1,6.188666821E-1,9.482544406E-1
5.670957502E0,-1.857936680E-1,-6.837835312E-1,7.668790221E-2,7.127132937E-1
5.675905783E0,-3.062714338E-1,-5.404586792E-1,-4.060748518E-1,7.421553478E-1
5.680854012E0,-4.977737665E-1,-3.210754395E-1,-6.672059298E-1,8.922062055E-1
5.685802241E0,-6.745059490E-1,-4.489803314E-2,-7.755956650E-1,1.028845345E0
5.690750366E0,-6.962083578E-1,2.257995605E-1,-9.031901956E-1,1.162516257E0
5.695698648E0,-5.111234188E-1,4.718837738E-1,-1.061506391E0,1.269140364E0
5.700646877E0,-2.996866703E-1,6.407794952E-1,-1.083082676E0,1.293629988E0
5.705595106E0,-1.175612807E-1,6.943473816E-1,-1.020885944E0,1.240220566E0
5.710543335E0,7.593360543E-2,7.595462799E-1,-7.024066448E-1,1.037329050E0
5.715491460E0,1.068772078E-1,7.981538773E-1,-1.450350583E-1,8.182343903E-1
5.720439741E0,1.189975739E-1,6.715431213E-1,2.175600529E-1,7.158651849E-1
5.725387971E0,2.585060000E-1,4.827461243E-1,3.597481251E-1,6.552006456E-1
5.730336200E0,3.726552427E-1,2.844705582E-1,3.845703006E-1,6.063742610E-1
5.735284325E0,3.713865876E-1,9.587955475E-2,3.310469389E-1,5.066684934E-1
5.740232606E0,2.716486454E-1,-3.520298004E-2,2.847683430E-1,3.951268727E-1
5.745180835E0,2.075983286E-1,-1.829690933E-1,2.768512964E-1,3.914350463E-1
5.750129064E0,6.714954972E-2,-2.852153778E-1,2.598170638E-1,3.916143261E-1
5.755077189E0,-1.109769791E-1,-3.587265015E-1,2.734231353E-1,4.645005960E-1
5.760025471E0,-3.188720047E-1,-3.652639389E-1,3.059303164E-1,5.733153225E-1
5.764973700E0,-5.398168564E-1,-3.718748093E-1,3.522750139E-1,7.441712153E-1
5.769921929E0,-7.400444746E-1,-3.546457291E-1,3.935603797E-1,9.101259199E-1
5.774870158E0,-8.819053769E-1,-1.845169067E-1,5.417478085E-1,1.051329763E0
5.779818283E0,-1.072622061E0,-1.472663879E-2,6.978033781E-1,1.279712668E0
5.784766564E0,-1.164583445E0,2.694664001E-1,9.337046742E-1,1.516796347E0
5.789714794E0,-1.291831732E0,4.646492004E-1,1.095908880E0,1.756628696E0
5.794663023E0,-1.330599785E0,6.020011902E-1,1.228062391E0,1.908150533E0
5.799611148E0,-1.341406822E0,7.342071533E-1,1.206721783E0,1.947975839E0
5.804559429E0,-1.291024566E0,9.019317627E-1,1.051614761E0,1.893705083E0
5.809507658E0,-1.363937378E0,9.043169022E-1,8.473861814E-1,1.842872098E0
5.814455887E0,-1.384979248E0,8.898010254E-1,8.466992378E-1,1.851165304E0
5.819404012E0,-1.421756387E0,7.603836060E-1,9.037485123E-1,1.848333256E0
5.824352294E0,-1.390456200E0,6.118659973E-1,9.133247137E-1,1.772543504E0
5.829300523E0,-1.374622583E0,4.131793976E-1,8.344965577E-1,1.660327969E0
5.834248752E0,-1.302716613E0,2.720069885E-1,7.705250382E-1,1.537779961E0
5.839196981E0,-1.307682276E0,9.260654449E-2,7.040057778E-1,1.488029920E0
5.844145106E0,-1.413113832E0,-7.713222504E-2,1.005900621E0,1.736282277E0
5.849093387E0,-1.377811193E0,-1.367101669E-1,3.785434365E-1,1.435391406E0
5.854041616E0,-1.171103001E0,-1.317148209E-1,-2.687189281E-1,1.208735246E0
5.858989846E0,-1.070360661E0,-1.148548126E-1,-6.398644447E-1,1.252313890E0
5.863937971E0,-9.036098123E-1,-4.556846619E-2,-5.783663988E-1,1.073822550E0
5.868886252E0,-7.971313596E-1,-4.349327087E-2,-6.444288492E-1,1.025962285E0
5.873834481E0,-6.751060486E-1,1.095962524E-2,-7.403534651E-1,1.002003764E0
5.878782710E0,-5.848050117E-1,9.137916565E-2,-7.277660370E-1,9.380780662E-1
5.883730835E0,-5.144106746E-1,2.097263336E-1,-7.425285578E-1,9.273360428E-1
5.888679116E0,-4.093590975E-1,3.683471680E-1,-7.653565407E-1,9.428812975E-1
5.893627346E0,-3.498817980E-1,3.807182312E-1,-8.316305280E-1,9.792716575E-1
5.898575575E0,-3.513059616E-1,3.523206711E-1,-9.643795490E-1,1.085160656E0
5.903523700E0,-3.435169458E-1,3.931922913E-1,-9.722872972E-1,1.103606206E0
5.908471981E0,-3.246994019E-1,4.315204620E-1,-9.248507619E-1,1.070975510E0
5.913420210E0,-3.497427404E-1,4.506254196E-1,-8.814707398E-1,1.049939959E0
5.918368439E0,-3.826427460E-1,4.599771500E-1,-8.287926316E-1,1.022199431E0
5.923316669E0,-3.996981382E-1,4.191112518E-1,-7.726750374E-1,9.656290988E-1
5.928264794E0,-5.081589818E-1,2.730541229E-1,-7.589021921E-1,9.532663017E-1
5.933213075E0,-5.954810381E-1,1.678495407E-1,-7.321038842E-1,9.585130319E-1
5.938161304E0,-6.733867526E-1,1.177206039E-1,-6.880988479E-1,9.699422063E-1
5.943109533E0,-7.179216146E-1,5.571460724E-2,-5.595185757E-1,9.119082184E-1
5.948057658E0,-7.416169643E-1,-4.201507568E-2,-5.326815248E-1,9.140626867E-1
5.953005939E0,-7.683976889E-1,-6.547832489E-2,-6.102340817E-1,9.834165210E-1
5.957954169E0,-6.410713792E-1,7.609367371E-2,-7.466706634E-1,9.870561483E-1
5.962902294E0,-5.747656226E-1,7.387542725E-2,-7.995884418E-1,9.874992537E-1
5.967850575E0,-5.574800968E-1,-2.524375916E-3,-9.238978028E-1,1.079063289E0
5.972798804E0,-5.341037512E-1,-3.838634491E-2,-1.041534662E0,1.171125434E0
5.977747033E0,-4.615655541E-1,-6.008529663E-2,-1.128680468E0,1.220890086E0
5.982695262E0,-4.048680663E-1,-1.681118011E-1,-1.233394623E0,1.308985112E0
5.987643387E0,-3.611754179E-1,-3.002185822E-1,-1.327073455E0,1.407729674E0
5.992591669E0,-4.432517290E-1,-4.754142761E-1,-1.361262083E0,1.508484434E0
5.997539898E0,-5.024222732E-1,-6.433553696E-1,-1.395330906E0,1.616565065E0
6.002488127E0,-6.173199415E-1,-7.728700638E-1,-1.462225199E0,1.765365282E0
6.007436252E0,-7.808811069E-1,-8.495311737E-1,-1.496626139E0,1.889806423E0
6.012384533E0,-8.734562397E-1,-9.067878723E-1,-1.545949817E0,1.993778043E0
6.017332762E0,-9.574170709E-1,-8.012161255E-1,-1.526601195E0,1.972081625E0
6.022280991E0,-9.844187498E-1,-6.071271896E-1,-1.400456667E0,1.816304648E0
6.027229116E0,-1.066892982E0,-5.158901215E-1,-1.284685373E0,1.747804268E0
6.032177398E0,-1.151711822E0,-4.341878891E-1,-1.217969179E0,1.731591223E0
6.037125627E0,-1.162499666E0,-2.973279953E-1,-1.168590784E0,1.674936963E0
6.042073856E0,-1.221026421E0,-2.799301147E-1,-1.205946445E0,1.738842494E0
6.047021981E0,-1.312595367E0,-3.339672089E-1,-1.279548764E0,1.863246021E0
6.051970262E0,-1.372668982E0,-3.660945892E-1,-1.322452188E0,1.940908336E0
6.056918491E0,-1.437275410E0,-4.601182938E-1,-1.344721556E0,2.021322713E0
6.061866721E0,-1.434865713E0,-4.294996262E-1,-1.224677563E0,1.934720826E0
6.066814846E0,-1.358516812E0,-3.724994659E-1,-1.139755249E0,1.812006018E0
6.071763127E0,-1.319839597E0,-2.986469269E-1,-1.173450232E0,1.791131484E0
6.076711356E0,-1.463929772E0,-5.259170532E-1,-1.184420824E0,1.955129616E0
6.081659585E0,-1.526686192E0,-6.283550262E-1,-1.137257814E0,2.004733424E0
6.086607710E0,-1.461401463E0,-5.775613785E-1,-1.111442089E0,1.924727227E0
6.091555991E0,-1.322950721E0,-4.788150787E-1,-1.135132074E0,1.807757538E0
6.096504221E0,-1.207922220E0,-3.920459747E-1,-1.103353262E0,1.682309293E0
6.101452450E0,-1.168783188E0,-3.171453476E-1,-1.054027915E0,1.605493743E0
6.106400575E0,-1.191607475E0,-2.613105774E-1,-1.011182308E0,1.584519250E0
6.111348856E0,-1.245105028E0,-2.029552460E-1,-9.004958868E-1,1.549958130E0
6.116297085E0,-1.298820734E0,-1.445608139E-1,-6.888551712E-1,1.477279451E0
6.121245314E0,-1.317010880E0,-2.880477905E-2,-4.292606115E-1,1.385500648E0
6.126193439E0,-1.331156015E0,1.998710632E-2,-2.862608433E-1,1.361734589E0
6.131141721E0,-1.319196701E0,-1.727199554E-2,-3.126440048E-1,1.355848270E0
6.136089950E0,-1.536252141E0,-2.671651840E-1,-2.117342949E-1,1.573619804E0
6.141038179E0,-1.699666619E0,-5.118570328E-1,-1.082012653E-1,1.778362098E0
6.145986304E0,-1.758811355E0,-7.513351440E-1,-7.861757278E-2,1.914184579E0
6.150934585E0,-1.878185511E0,-1.143488884E0,-1.736375093E-1,2.205741967E0
6.155882814E0,-2.019072294E0,-1.602085114E0,-1.399385929E-1,2.581261794E0
6.160831044E0,-2.092973948E0,-2.098462105E0,-1.838650703E-1,2.969493141E0
6.165779169E0,-2.059253216E0,-2.529656410E0,-3.551088572E-1,3.281125975E0
6.170727450E0,-2.047056675E0,-2.950802803E0,-5.462092161E-1,3.632633029E0
6.175675679E0,-2.003995895E0,-3.057980537E0,-7.510516644E-1,3.732468770E0
6.180623908E0,-1.934756041E0,-2.959130287E0,-8.522619009E-1,3.636768255E0
6.185572033E0,-1.842127800E0,-2.632783890E0,-8.536788225E-1,3.324718541E0
6.190520314E0,-1.722323537E0,-2.284848213E0,-7.885620594E-1,2.967955499E0
6.195468544E0,-1.654800057E0,-2.027759552E0,-7.024089098E-1,2.709898579E0
6.200416773E0,-1.649890780E0,-1.868585587E0,-5.687482357E-1,2.556799999E0
6.205365002E0,-1.676792383E0,-1.826253891E0,-4.828209877E-1,2.525856702E0
6.210313127E0,-1.702212811E0,-1.948451996E0,-4.756233692E-1,2.630629435E0
6.215261408E0,-1.664015770E0,-2.141725540E0,-4.490060806E-1,2.749098622E0
6.220209637E0,-1.666019201E0,-2.296103477E0,-4.935004711E-1,2.879453746E0
6.225157866E0,-9.782158136E-1,-1.693998337E0,-7.654885054E-1,2.100597342E0
6.230105991E0,-1.106446981E0,-2.380708694E0,-1.104478836E0,2.848134883E0
6.235054273E0,-1.223305583E0,-2.752377510E0,-1.284822941E0,3.274573025E0
6.240002502E0,-1.158063889E0,-2.976758003E0,-1.416610837E0,3.494136008E0
6.244950731E0,-1.005984426E0,-3.058787346E0,-1.482865095E0,3.545006852E0
6.249898856E0,-7.671129704E-1,-3.029765129E0,-1.531322360E0,3.480357340E0
6.254847137E0,-4.724193811E-1,-2.870762825E0,-1.571503162E0,3.306672264E0
6.259795366E0,-2.299864292E-1,-2.675359726E0,-1.634748101E0,3.143699218E0
6.264743491E0,3.277003765E-3,-2.357462883E0,-1.703351974E0,2.908444590E0
6.269691773E0,1.695520282E-1,-2.094417572E0,-1.691787720E0,2.697680215E0
6.274640002E0,2.928113937E-1,-1.912536621E0,-1.650014043E0,2.542849028E0
6.279588231E0,3.256641030E-1,-1.771186829E0,-1.522997618E0,2.358533789E0
6.284536356E0,2.891098857E-1,-1.625106812E0,-1.313401699E0,2.109402925E0
6.289484637E0,5.318759680E-1,-9.819803238E-1,-9.954372644E-1,1.496018967E0
6.294432866E0,3.288971186E-1,-8.109016418E-1,-8.277329803E-1,1.204523422E0
6.299381096E0,4.722398520E-2,-7.074136734E-1,-4.978079200E-1,8.663007187E-1
6.304329221E0,-8.240807056E-2,-4.802923203E-1,-1.643693447E-1,5.142850226E-1
6.309277502E0,-1.415891945E-1,-2.399110794E-1,9.256935120E-2,2.935539317E-1
6.314225731E0,-7.770484686E-2,3.270816803E-2,2.629467845E-1,2.761319955E-1
6.319173960E0,1.179809570E-1,3.086729050E-1,3.126770258E-1,4.549344908E-1
6.324122085E0,4.086135030E-1,5.232868195E-1,3.537179530E-1,7.522702177E-1
6.329070366E0,7.697934508E-1,6.933088303E-1,3.190398216E-1,1.083995156E0
6.334018596E0,1.114693761E0,7.613315582E-1,3.519164622E-1,1.394995741E0
6.338966825E0,1.457475781E0,7.131071091E-1,4.019861817E-1,1.671631028E0
6.343914950E0,1.778762579E0,5.200605392E-1,5.357351303E-1,1.929111559E0
6.348863231E0,2.035493851E0,2.349700928E-1,7.123751044E-1,2.169314281E0
6.353811460E0,2.230283022E0,-1.300830841E-1,8.624576330E-1,2.394768702E0
6.358759689E0,2.391813517E0,-5.391435623E-1,9.718604088E-1,2.637415465E0
6.363707814E0,2.515289307E0,-9.252347946E-1,1.107975006E0,2.900060057E0
6.368656096E0,2.624116659E0,-1.242938042E0,1.303359866E0,3.182707991E0
6.373604325E0,2.754117250E0,-1.492387772E0,1.544469833E0,3.492530624E0
6.378552554E0,2.725101709E0,-1.702292442E0,1.834722757E0,3.700025200E0
6.383500679E0,2.740731239E0,-1.817711830E0,2.227146864E0,3.971884588E0
6.388448960E0,2.575658798E0,-1.998853683E0,2.565197468E0,4.148454211E0
6.393397189E0,2.290672541E0,-2.140300751E0,2.858004808E0,4.242199839E0
6.398345419E0,1.749309063E0,-2.217899323E0,3.397936821E0,4.418725409E0
6.403293544E0,1.116516113E0,-2.324780464E0,4.090831280E0,4.835919044E0
6.408241825E0,7.262791395E-1,-2.312405586E0,4.364205360E0,4.992092689E0
6.413190054E0,4.891731739E-1,-2.271964073E0,4.180006027E0,4.782631235E0
6.418138283E0,4.241472483E-1,-2.067301750E0,3.587779522E0,4.162427094E0
6.423086408E0,3.331998289E-1,-1.827999115E0,2.745191097E0,3.314917352E0
6.428034689E0,-2.674463391E-2,-1.597023964E0,2.285604000E0,2.788402134E0
6.432982919E0,-5.966455936E-1,-1.398250580E0,2.086567402E0,2.581637885E0
6.437931148E0,-1.037135363E0,-1.133469582E0,1.850656509E0,2.405271828E0
6.442879273E0,-1.247312665E0,-8.120441437E-1,1.607865214E0,2.190989531E0
6.447827554E0,-1.392465949E0,-5.080919266E-1,1.496809006E0,2.106550741E0
6.452775783E0,-1.603021979E0,-3.194704056E-1,1.373512864E0,2.135012504E0
6.457724012E0,-1.895511866E0,-2.913970947E-1,1.178201437E0,2.250785669E0
6.462672137E0,-2.090604067E0,-2.466154099E-1,1.183364511E0,2.414911197E0
6.467620419E0,-2.224850893E0,-2.302370071E-1,1.406835198E0,2.642376932E0
6.472568648E0,-2.227411509E0,-2.111616135E-1,1.595317125E0,2.747906109E0
6.477516773E0,-2.172187567E0,-1.893281937E-1,1.834993839E0,2.849815148E0
6.482465054E0,-2.196035147E0,-2.246732712E-1,1.877968788E0,2.898243470E0
6.487413283E0,-2.031309843E0,-2.358980179E-1,2.042929888E0,2.890576081E0
6.492361512E0,-1.893442750E0,-2.495384216E-1,2.287537098E0,2.979969940E0
6.497309637E0,-1.712999940E0,-2.395267487E-1,2.366276026E0,2.931041468E0
6.502257919E0,-1.690098524E0,-2.826232910E-1,2.282462358E0,2.854109907E0
6.507206148E0,-1.570972204E0,-3.452863693E-1,2.179735422E0,2.708952354E0
6.512154377E0,-1.498819351E0,-3.746690750E-1,2.193701267E0,2.683125344E0
6.517102502E0,-1.395098686E0,-3.802328110E-1,2.252086401E0,2.676335273E0
6.522050783E0,-1.207150221E0,-3.308305740E-1,2.335484028E0,2.649744548E0
6.526999012E0,-1.073693871E0,-2.574005127E-1,2.287873268E0,2.540361715E0
6.531947241E0,-9.892953634E-1,-1.577138901E-1,2.227004290E0,2.441951493E0
6.536895366E0,-8.105490208E-1,4.323005676E-3,2.130722284E0,2.279689860E0
6.541843648E0,-6.332786679E-1,2.116613388E-1,1.980647206E0,2.090168833E0
6.546791877E0,-3.981783092E-1,4.167308807E-1,1.962602139E0,2.045487166E0
6.551740106E0,-1.340836138E-1,6.983861923E-1,1.973824620E0,2.098024147E0
6.556688231E0,1.060676575E-1,9.393396378E-1,1.985753655E0,2.199278719E0
6.561636512E0,3.940742910E-1,1.147002220E0,1.997972488E0,2.337263936E0
6.566584741E0,5.833709240E-1,1.316725254E0,2.165800571E0,2.600918904E0
6.571532971E0,7.841753960E-1,1.458334923E0,2.316430092E0,2.847370747E0
6.576481096E0,9.701113701E-1,1.598278999E0,2.370810509E0,3.019330108E0
6.581429377E0,1.226887345E0,1.741526604E0,2.419609070E0,3.223767287E0
6.586377606E0,1.413395047E0,1.804495335E0,2.498531818E0,3.390656311E0
6.591325835E0,1.596513748E0,1.892636299E0,2.492547035E0,3.513362923E0
6.596273960E0,1.773905754E0,1.984225273E0,2.469212055E0,3.630550886E0
6.601222241E0,1.868774056E0,2.007838249E0,2.499650955E0,3.711062625E0
6.606170471E0,1.960255146E0,2.102149487E0,2.552997112E0,3.844402028E0
6.611118596E0,2.028943539E0,2.216855526E0,2.552808523E0,3.943081493E0
6.616066877E0,2.103458881E0,2.363741398E0,2.576069355E0,4.080189454E0
6.621015106E0,2.190594912E0,2.497402191E0,2.582029581E0,4.207445844E0
6.625963335E0,2.118897200E0,2.639447212E0,2.647001266E0,4.296861952E0
6.630911460E0,2.074442387E0,2.765839577E0,2.685202122E0,4.377612387E0
6.635859741E0,2.067289352E0,2.938941956E0,2.703379154E0,4.496590257E0
6.640807971E0,2.042244911E0,3.048534870E0,2.687629223E0,4.548371134E0
6.645756200E0,1.973696589E0,3.168861389E0,2.664118767E0,4.586359072E0
6.650704325E0,1.887624383E0,3.278364182E0,2.616204739E0,4.599491793E0
6.655652606E0,1.875154495E0,3.386534214E0,2.556025982E0,4.638759229E0
6.660600835E0,1.847655058E0,3.467120647E0,2.445198059E0,4.627499146E0
6.665549064E0,1.781482816E0,3.558349133E0,2.341258764E0,4.617036081E0
6.670497189E0,1.650121212E0,3.631399632E0,2.251632929E0,4.580372708E0
6.675445471E0,1.666336060E0,3.664889812E0,2.044488907E0,4.515310409E0
6.680393700E0,1.603053689E0,3.670690060E0,1.787149787E0,4.386074669E0
6.685341825E0,1.582288504E0,3.514671803E0,1.492217064E0,4.133190844E0
6.690290106E0,1.573446512E0,3.278223515E0,1.157507896E0,3.816059207E0
6.695238335E0,1.535617113E0,3.013776302E0,8.865456581E-1,3.496702836E0
6.700186564E0,1.526319504E0,2.745180130E0,6.603224277E-1,3.209624726E0
6.705134689E0,1.488287330E0,2.398250103E0,4.812874794E-1,2.863256951E0
6.710082971E0,1.459580779E0,2.142720222E0,3.114771843E-1,2.611253346E0
6.715031200E0,1.494730830E0,1.873258591E0,1.318132877E-1,2.400144318E0
6.719979429E0,1.602655292E0,1.635267258E0,-1.029484272E-1,2.291986336E0
6.724927554E0,1.605798960E0,1.402325153E0,-3.398616314E-1,2.158845076E0
6.729875835E0,1.659623265E0,1.212593555E0,-6.288931370E-1,2.149474143E0
6.734824064E0,1.576519132E0,1.013352394E0,-8.836004734E-1,2.071966564E0
6.739772189E0,1.445509434E0,8.547286987E-1,-1.067951918E0,1.990120592E0
6.744720471E0,1.220881820E0,6.887817383E-1,-1.145934105E0,1.810562806E0
6.749668700E0,1.019546986E0,5.106611252E-1,-1.296774626E0,1.726810722E0
6.754616929E0,7.537843585E-1,2.938184738E-1,-1.529308796E0,1.730117206E0
6.759565054E0,3.741320670E-1,4.748344421E-3,-1.769151449E0,1.808284878E0
6.764513335E0,2.548319101E-2,-3.063573837E-1,-2.097372055E0,2.119781540E0
6.769461564E0,-3.196556270E-1,-6.395759583E-1,-2.523187876E0,2.622539644E0
6.774409794E0,-6.047582626E-1,-9.444398880E-1,-3.028056622E0,3.229059640E0
6.779357919E0,-8.292721510E-1,-1.151837349E0,-3.434344769E0,3.716065872E0
6.784306200E0,-9.361016750E-1,-1.251837730E0,-3.733933926E0,4.047918800E0
6.789254429E0,-9.908542633E-1,-1.223116875E0,-3.909928083E0,4.214895571E0
6.794202554E0,-9.571913481E-1,-1.163699150E0,-4.077585220E0,4.347080885E0
6.799150835E0,-1.051282763E0,-1.207631111E0,-4.348920822E0,4.634293977E0
6.804099064E0,-1.328416705E0,-1.400374413E0,-4.651560783E0,5.036145069E0
6.809047294E0,-1.782055378E0,-1.849660873E0,-5.022859573E0,5.641461248E0
6.813995523E0,-2.269022465E0,-2.426628113E0,-5.475421906E0,6.404469688E0
6.818943648E0,-2.740929842E0,-3.117421150E0,-5.923626900E0,7.233281874E0
6.823891929E0,-3.276532412E0,-3.841013908E0,-6.108142853E0,7.924548037E0
6.828840158E0,-3.603492498E0,-4.466269493E0,-6.088082314E0,8.366448926E0
6.833788283E0,-3.774921894E0,-4.842143059E0,-5.640731812E0,8.337520020E0
6.838736564E0,-3.778610229E0,-4.889430046E0,-4.840347290E0,7.849419299E0
6.843684794E0,-3.513406754E0,-4.529112816E0,-3.872988701E0,6.917870438E0
6.848633023E0,-3.080235481E0,-3.838281631E0,-3.350766897E0,5.953813509E0
6.853581148E0,-2.434058189E0,-2.888537407E0,-3.339089155E0,5.041607284E0
6.858529429E0,-1.808729172E0,-1.828113556E0,-3.170980215E0,4.082721631E0
6.863477658E0,-1.275584698E0,-7.778882980E-1,-2.725296497E0,3.107968392E0
6.868425783E0,-7.731255889E-1,1.912717819E-1,-1.975713968E0,2.130200403E0
6.873374064E0,-2.848426998E-1,9.824190140E-1,-9.895424843E-1,1.423192471E0
6.878322294E0,1.207522750E-1,1.589255810E0,-5.561661720E-2,1.594806681E0
6.883270523E0,4.582242370E-1,1.954975128E0,7.177519798E-1,2.132384840E0
6.888218648E0,7.858194113E-1,2.132645607E0,1.375741005E0,2.656756057E0
6.893166929E0,1.142489076E0,2.203773022E0,1.932783484E0,3.146037002E0
6.898115158E0,1.429329753E0,2.132435799E0,2.346154213E0,3.477744322E0
6.903063283E0,1.672400475E0,1.796466827E0,2.532987356E0,3.527072633E0
6.908011564E0,1.904019713E0,1.231317520E0,2.609995127E0,3.457384628E0
6.912959794E0,2.153866529E0,4.606351852E-1,2.674148560E0,3.464447477E0
6.917908023E0,2.447478294E0,-4.994297028E-1,2.655929327E0,3.646030803E0
6.922856148E0,2.737532616E0,-1.470156670E0,2.572012186E0,4.033694602E0
6.927804429E0,3.084032059E0,-2.543231964E0,2.102043629E0,4.516400113E0
6.932752658E0,3.391500711E0,-3.609391212E0,1.636427760E0,5.216117120E0
6.937700887E0,3.670178652E0,-4.638117790E0,1.277403474E0,6.050959230E0
6.942649012E0,3.934277058E0,-5.529680252E0,8.907392025E-1,6.844656016E0
6.947597294E0,4.042305470E0,-6.174524307E0,5.253815651E-1,7.398716762E0
6.952545523E0,4.031519890E0,-6.460677147E0,1.699464321E-1,7.617242520E0
6.957493648E0,3.992252350E0,-6.266411781E0,-2.024326324E-1,7.432830848E0
6.962441929E0,3.948572636E0,-5.536880493E0,-7.867891788E-1,6.845970250E0
6.967390158E0,4.084177971E0,-4.071037292E0,-1.291383266E0,5.909443720E0
6.972338387E0,4.537281513E0,-1.902173042E0,-1.571436882E0,5.164745849E0
6.977286512E0,5.111107826E0,3.888444901E-1,-1.305188656E0,5.289436707E0
6.982234794E0,5.454469681E0,2.377715111E0,-3.566329479E-1,5.960868704E0
6.987183023E0,5.525000572E0,3.931797028E0,1.153615236E0,6.878625393E0
6.992131148E0,5.404602051E0,5.009165764E0,2.864453554E0,7.906108976E0
6.997079429E0,5.201531410E0,5.519526482E0,4.251901150E0,8.694812533E0
7.002027658E0,4.862313271E0,5.669027328E0,5.213924408E0,9.108510796E0
7.006975887E0,4.467199802E0,5.591248512E0,5.736403465E0,9.171927754E0
7.011924012E0,3.971803188E0,5.354814529E0,5.774919510E0,8.820371566E0
7.016872294E0,3.313315630E0,4.954342365E0,5.514122486E0,8.119674595E0
7.021820523E0,2.429544210E0,4.257895470E0,5.056716919E0,7.042921617E0
7.026768648E0,1.247673035E0,3.213087082E0,4.508529663E0,5.675161348E0
7.031716929E0,-1.373274028E-1,1.947183609E0,4.043766499E0,4.490259493E0
7.036665158E0,-1.687764287E0,5.894927979E-1,3.748582363E0,4.153061495E0
7.041613387E0,-3.277958155E0,-7.305946350E-1,3.679520130E0,4.981731283E0
7.046561512E0,-4.758555412E0,-1.910493851E0,3.707746506E0,6.327813249E0
7.051509794E0,-6.011842728E0,-2.842934608E0,3.852788925E0,7.685604249E0
7.056458023E0,-6.980351925E0,-3.621677399E0,4.182189465E0,8.906883231E0
7.061406148E0,-7.614142418E0,-4.208500862E0,4.666418076E0,9.872289599E0
7.066354429E0,-7.825809956E0,-4.532135963E0,5.016833782E0,1.034176866E1
7.071302658E0,-7.594403267E0,-4.533085823E0,5.156927109E0,1.023805281E1
7.076250783E0,-7.008456707E0,-4.261964798E0,5.039077759E0,9.626791470E0
7.081199064E0,-6.217932701E0,-3.879195213E0,4.694060326E0,8.703162926E0
7.086147294E0,-5.079791069E0,-3.231867790E0,4.196092129E0,7.338694426E0
7.091095523E0,-3.709509850E0,-2.358428955E0,3.520692825E0,5.631867224E0
7.096043648E0,-2.295361757E0,-1.498175621E0,2.834990501E0,3.943397892E0
7.100991929E0,-8.036627769E-1,-6.079006195E-1,2.126401901E0,2.353083523E0
7.105940158E0,6.299729347E-1,3.004140854E-1,1.320880651E0,1.493934475E0
7.110888283E0,1.853471518E0,1.219552040E0,6.149014235E-1,2.302339594E0
7.115836564E0,2.722932100E0,1.955762386E0,2.598102093E-1,3.362568524E0
7.120784794E0,3.266129255E0,2.540273666E0,2.320148945E-1,4.144203364E0
7.125732919E0,3.772255898E0,2.887105942E0,1.181242466E-1,4.751762685E0
7.130681200E0,4.191113472E0,3.032433033E0,-6.979393959E-2,5.173582263E0
7.135629429E0,4.422519207E0,3.053149223E0,2.377653122E-2,5.374101008E0
7.140577658E0,4.424077034E0,2.870533943E0,2.449561357E-1,5.279434272E0
7.145525783E0,4.373193264E0,2.566090107E0,4.835535288E-1,5.093472467E0
7.150474064E0,4.175100327E0,2.233123302E0,6.895028353E-1,4.784737880E0
7.155422294E0,3.882755280E0,1.830924034E0,8.703424931E-1,4.380133267E0
7.160370419E0,3.490144968E0,1.395333290E0,1.067089081E0,3.907268355E0
7.165318700E0,2.924481869E0,9.334888458E-1,1.413769484E0,3.379754396E0
7.170266929E0,2.332521915E0,4.668245316E-1,1.748407125E0,2.952204448E0
7.175215054E0,1.787112474E0,-4.831314087E-3,1.699705124E0,2.466331658E0
7.180163335E0,1.183750510E0,-3.833751678E-1,1.722185373E0,2.124656266E0
7.185111564E0,6.264780760E-1,-6.928777695E-1,1.785632372E0,2.015201566E0
7.190059794E0,1.299966574E-1,-9.619789124E-1,1.767068148E0,2.016142951E0
7.195007919E0,-2.212033868E-1,-1.154827118E0,1.743227959E0,2.102712611E0
7.199956200E0,-5.948145390E-1,-1.283370972E0,1.725273728E0,2.231012063E0
7.204904429E0,-9.143676162E-1,-1.268724442E0,1.743811607E0,2.342351120E0
7.209852554E0,-1.149444580E0,-1.115792274E0,1.735896587E0,2.362107577E0
7.214800835E0,-1.272315383E0,-9.012031555E-1,1.764986873E0,2.355022765E0
7.219749064E0,-1.343533635E0,-5.867948532E-1,2.065365791E0,2.532813985E0
7.224697189E0,-1.333622456E0,-2.612333298E-1,1.890096545E0,2.327929693E0
7.229645471E0,-1.168874502E0,1.472187042E-1,1.328001618E0,1.775254699E0
7.234593700E0,-1.012850523E0,4.256515503E-1,9.064154625E-1,1.424301378E0
7.239541929E0,-9.322077036E-1,7.057619095E-1,6.298452616E-1,1.328087395E0
7.244490054E0,-8.120434880E-1,9.158391953E-1,6.165874600E-1,1.370531340E0
7.249438335E0,-7.056051493E-1,1.039234161E0,6.207807064E-1,1.401162001E0
7.254386564E0,-5.861707330E-1,1.119100571E0,5.294031501E-1,1.369762721E0
7.259334689E0,-5.255382061E-1,1.126797676E0,3.164498806E-1,1.282966849E0
7.264282971E0,-5.137121677E-1,1.141320229E0,1.707281917E-1,1.263194431E0
7.269231200E0,-6.051739454E-1,1.043098450E0,5.852860212E-2,1.207358885E0
7.274179325E0,-8.024538755E-1,8.251075745E-1,-1.178725511E-1,1.156991214E0
7.279127606E0,-9.353581071E-1,6.309471130E-1,-2.083211988E-1,1.147338995E0
7.284075835E0,-1.111439347E0,4.534139633E-1,-2.342639118E-1,1.223013175E0
7.289023960E0,-1.332574248E0,1.920681000E-1,-2.959985733E-1,1.378498980E0
7.293972241E0,-1.509962440E0,-4.775524139E-2,-3.381342888E-1,1.548096227E0
7.298920471E0,-1.667564154E0,-2.349681854E-1,-3.985683620E-1,1.730559734E0
7.303868700E0,-1.791048527E0,-3.433218002E-1,-4.964684248E-1,1.890027931E0
7.308816825E0,-1.856817245E0,-3.895816803E-1,-6.237621307E-1,1.997153816E0
7.313765106E0,-1.831539392E0,-3.115806580E-1,-8.347345591E-1,2.036762342E0
7.318713335E0,-1.758913994E0,-1.572628021E-1,-1.055132389E0,2.057137425E0
7.323661460E0,-1.594125748E0,7.095813751E-2,-1.346639872E0,2.087992074E0
7.328609741E0,-1.384709358E0,3.155927658E-1,-1.628399134E0,2.160718061E0
7.333557971E0,-1.307715297E0,4.498834610E-1,-1.872132897E0,2.327530024E0
7.338506096E0,-1.174075246E0,4.738445282E-1,-2.043512344E0,2.403939272E0
7.343454377E0,-9.913780689E-1,5.668811798E-1,-2.073921680E0,2.367559056E0
7.348402606E0,-8.965308666E-1,5.470199585E-1,-2.134671688E0,2.379037966E0
7.353350731E0,-6.860757470E-1,6.390647888E-1,-2.080535412E0,2.282045428E0
7.358299012E0,-4.752872586E-1,6.754207611E-1,-1.933418036E0,2.102426332E0
7.363247241E0,-2.209145427E-1,6.536026001E-1,-1.603560567E0,1.745682126E0
7.368195366E0,-4.735279083E-2,6.023750305E-1,-1.188665748E0,1.333425747E0
7.373143648E0,1.481489241E-1,5.503816605E-1,-8.635058403E-1,1.034654731E0
7.378091877E0,2.820397317E-1,4.138317108E-1,-5.923279524E-1,7.756645527E-1
7.383040106E0,2.040021122E-1,1.165018082E-1,-5.669444203E-1,6.136900755E-1
7.387988231E0,-2.047973871E-2,-2.742872238E-1,-8.360279799E-1,8.801111770E-1
7.392936512E0,-3.792271912E-1,-6.433668137E-1,-1.275419712E0,1.477981584E0
7.397884741E0,-7.447515726E-1,-8.830108643E-1,-1.764751911E0,2.109197098E0
7.402832866E0,-1.145709991E0,-9.668264389E-1,-2.245359898E0,2.699823294E0
7.407781148E0,-1.596151352E0,-9.521646500E-1,-2.644636154E0,3.232401127E0
7.412729377E0,-1.926534653E0,-7.769527435E-1,-2.874386549E0,3.546447429E0
7.417677502E0,-2.203985453E0,-5.942373276E-1,-2.946117878E0,3.726966652E0
7.422625783E0,-2.407166958E0,-4.086551666E-1,-2.878626347E0,3.774644546E0
7.427574012E0,-2.483458996E0,-2.896566391E-1,-2.519955635E0,3.549879710E0
7.432522137E0,-2.413984299E0,-1.655025482E-1,-1.921258807E0,3.089651549E0
7.437470419E0,-2.287265062E0,-1.725234985E-1,-1.205150843E0,2.591087489E0
7.442418648E0,-2.201243877E0,-4.398670197E-1,-6.455010176E-1,2.335728830E0
7.447366773E0,-2.093218088E0,-7.614803314E-1,-2.586346865E-1,2.242388495E0
7.452315054E0,-1.910300255E0,-1.041670799E0,-1.689847708E-1,2.182402568E0
7.457263283E0,-1.854959249E0,-1.512439728E0,-3.623105288E-1,2.420664509E0
7.462211408E0,-1.902832985E0,-1.910380363E0,-7.397438288E-1,2.795987738E0
7.467159689E0,-1.914824128E0,-2.147218704E0,-1.227657557E0,3.127977411E0
7.472107919E0,-1.996076822E0,-2.132099152E0,-1.586049795E0,3.323510708E0
7.477056148E0,-2.059026957E0,-1.939689636E0,-1.787173271E0,3.346038881E0
7.482004273E0,-2.041658401E0,-1.596437454E0,-1.806973219E0,3.159451501E0
7.486952554E0,-2.081340313E0,-1.377775192E0,-1.560501933E0,2.943706552E0
7.491900783E0,-2.094416142E0,-1.142502785E0,-1.151031017E0,2.648917513E0
7.496848908E0,-2.076257706E0,-1.026975632E0,-8.323780298E-1,2.461377296E0
7.501797189E0,-2.081904173E0,-1.045400620E0,-5.996917486E-1,2.405580519E0
7.506745419E0,-2.001190424E0,-1.094839096E0,-4.938026667E-1,2.333940195E0
7.511693544E0,-1.832041502E0,-1.170532227E0,-4.621455669E-1,2.222633637E0
7.516641825E0,-1.619989157E0,-1.279677391E0,-6.363883018E-1,2.160307655E0
7.521590054E0,-1.363614917E0,-1.412643433E0,-9.966620207E-1,2.201895159E0
7.526538179E0,-1.153512836E0,-1.466437340E0,-1.429803252E0,2.350610064E0
7.531486460E0,-1.202036500E0,-1.828435898E0,-1.947475910E0,2.929288651E0
7.536434689E0,-1.453352213E0,-2.175267220E0,-2.269212246E0,3.463140821E0
7.541382919E0,-1.705922365E0,-2.430500984E0,-2.379018068E0,3.804895941E0
7.546331044E0,-2.061632156E0,-2.665819168E0,-2.262519598E0,4.059053328E0
7.551279325E0,-2.469878435E0,-2.845478058E0,-2.035370827E0,4.282496849E0
7.556227554E0,-2.805496216E0,-2.942880630E0,-1.772943377E0,4.435615362E0
7.561175679E0,-3.130279779E0,-2.941255569E0,-1.541851997E0,4.563654611E0
7.566123960E0,-3.402620316E0,-2.842780113E0,-1.278795958E0,4.614601054E0
7.571072189E0,-3.611011028E0,-2.735991478E0,-9.928843975E-1,4.637981182E0
7.576020314E0,-3.693394423E0,-2.585152626E0,-6.367429495E-1,4.552979030E0
7.580968596E0,-3.549063683E0,-2.397861481E0,-4.646112919E-1,4.308300866E0
7.585916825E0,-3.267675400E0,-2.315351486E0,-6.029752493E-1,4.049954836E0
7.590864950E0,-2.970077515E0,-2.340013504E0,-1.001220942E0,3.911453312E0
7.595813231E0,-2.797164917E0,-2.426101685E0,-1.454871655E0,3.978285119E0
7.600761460E0,-2.667376757E0,-2.556753159E0,-1.879795313E0,4.145541689E0
7.605709585E0,-2.532544374E0,-2.624061584E0,-2.210051775E0,4.264247771E0
7.610657866E0,-2.366668463E0,-2.573260307E0,-2.357548714E0,4.216731454E0
7.615606096E0,-2.116783142E0,-2.485652924E0,-2.323886395E0,4.007454217E0
7.620554325E0,-1.835548282E0,-2.418751717E0,-2.183273792E0,3.739823768E0
7.625502450E0,-1.532498837E0,-2.367798805E0,-1.866137981E0,3.381936551E0
7.630450731E0,-1.116694689E0,-2.206200600E0,-1.504306793E0,2.894350884E0
7.635398960E0,-7.221713662E-1,-1.998987198E0,-1.103787303E0,2.394958812E0
7.640347085E0,-3.845596611E-1,-1.727334023E0,-7.133352160E-1,1.907987445E0
7.645295366E0,-1.371995211E-1,-1.434576035E0,-3.312833309E-1,1.478709151E0
7.650243491E0,-6.050080061E-2,-1.235659599E0,-3.827214241E-3,1.237145763E0
7.655191773E0,-5.236887932E-2,-1.066102028E0,2.736141682E-1,1.101898701E0
7.660140002E0,1.306046844E-1,-6.725988388E-1,4.638810158E-1,8.274251497E-1
7.665088231E0,5.121018887E-1,-1.104259491E-1,3.289829493E-1,6.186048945E-1
7.670036356E0,1.147248149E-1,-3.219060898E-1,2.311786413E-1,4.125880245E-1
7.674984637E0,-1.677916646E-1,-4.263057709E-1,2.368873954E-1,5.157579772E-1
7.679932866E0,-3.229624629E-1,-4.932270050E-1,2.384795547E-1,6.359639368E-1
7.684880991E0,-4.021446109E-1,-5.635099411E-1,1.752308607E-1,7.141215557E-1
7.689829273E0,-4.448109865E-1,-6.707515717E-1,1.946412027E-1,8.280396623E-1
7.694777502E0,-3.156209886E-1,-8.126258850E-1,3.088487387E-1,9.248594384E-1
7.699725627E0,-7.900691032E-2,-9.772262573E-1,4.822767377E-1,1.092613427E0
7.704673908E0,3.960443139E-1,-1.059352875E0,6.230896115E-1,1.291247566E0
7.709622137E0,1.027065396E0,-1.094993591E0,7.348816991E-1,1.671503935E0
7.714570262E0,1.669153929E0,-1.194180489E0,8.551645875E-1,2.223386685E0
7.719518544E0,2.279091597E0,-1.373479843E0,9.338243604E-1,2.820059099E0
7.724466773E0,2.739402056E0,-1.656648636E0,9.904963374E-1,3.351103001E0
7.729414898E0,3.016733170E0,-2.000404358E0,1.067577004E0,3.773859731E0
7.734363179E0,3.187936306E0,-2.261173248E0,1.123004675E0,4.066568805E0
7.739311408E0,3.351096630E0,-2.482051849E0,1.003845930E0,4.289304916E0
7.744259533E0,3.305868626E0,-2.713268280E0,1.064539433E0,4.407248159E0
7.749207814E0,3.083256721E0,-2.926111221E0,1.307435989E0,4.447244962E0
7.754156044E0,2.871339083E0,-3.134983063E0,1.596424341E0,4.541065691E0
7.759104169E0,2.717131853E0,-3.248990059E0,1.900232911E0,4.642157583E0
7.764052450E0,2.590624332E0,-3.296952248E0,2.278955936E0,4.772302245E0
7.769000679E0,2.431433439E0,-3.212018013E0,2.622993231E0,4.807184392E0
7.773948804E0,2.155291796E0,-3.042221069E0,2.870852709E0,4.705548537E0
7.778897085E0,1.819444060E0,-2.840291023E0,2.934509516E0,4.470903251E0
7.783845314E0,1.420790434E0,-2.570313454E0,3.105562925E0,4.274304363E0
7.788793439E0,9.973579049E-1,-2.217873573E0,3.612788677E0,4.354988864E0
7.793741721E0,5.428357124E-1,-1.775998116E0,3.751165867E0,4.185700094E0
7.798689950E0,-7.293373346E-3,-1.311685562E0,3.406165600E0,3.650004973E0
7.803638179E0,-4.329652488E-1,-8.918628693E-1,3.085150003E0,3.240529097E0
7.808586304E0,-7.105853558E-1,-4.137020111E-1,2.709521055E0,2.831534081E0
7.813534585E0,-9.378946424E-1,-7.791328430E-2,2.445756197E0,2.620580129E0
7.818482814E0,-1.208150864E0,1.684036255E-1,2.417698622E0,2.707998323E0
7.823430939E0,-1.427484870E0,3.350229263E-1,2.342630625E0,2.763669962E0
7.828379221E0,-1.492650270E0,3.908376694E-1,2.089715481E0,2.597627707E0
7.833327450E0,-1.592306376E0,3.218002319E-1,1.924023390E0,2.518106627E0
7.838275575E0,-1.678356647E0,2.165479660E-1,2.103780270E0,2.699938051E0
7.843223856E0,-1.627103329E0,1.014995575E-1,2.398978710E0,2.900494140E0
7.848172085E0,-1.536882281E0,7.772445679E-3,2.692411184E0,3.100184759E0
7.853120210E0,-1.341677547E0,-3.825187683E-2,2.981595039E0,3.269781464E0
7.858068491E0,-1.139571786E0,-8.680152893E-2,3.170893908E0,3.370567687E0
7.863016721E0,-9.569190145E-1,-3.962326050E-2,3.247912169E0,3.386177411E0
7.867964846E0,-7.478817701E-1,6.743431091E-2,3.222072363E0,3.308417271E0
7.872913127E0,-6.556195021E-1,1.315441132E-1,3.134068251E0,3.204609896E0
7.877861356E0,-5.334117413E-1,2.245264053E-1,2.991132498E0,3.046606934E0
7.882809481E0,-4.525142014E-1,3.344535828E-1,2.833901882E0,2.889226225E0
7.887757762E0,-3.549992442E-1,4.902505875E-1,2.709599972E0,2.776382918E0
7.892705991E0,-3.030939698E-1,6.225156784E-1,2.620769978E0,2.710687551E0
7.897654116E0,-1.720538437E-1,7.960443497E-1,2.621938229E0,2.745514379E0
7.902602398E0,-6.506434083E-2,9.794759750E-1,2.613367081E0,2.791647193E0
7.907550627E0,-3.208637238E-3,1.189733505E0,2.683112383E0,2.935058461E0
7.912498752E0,3.509160876E-2,1.388638973E0,2.723331213E0,3.057136326E0
7.917447033E0,1.813194007E-1,1.583372593E0,2.782042503E0,3.206198057E0
7.922395262E0,4.232052565E-1,1.809907436E0,2.856722832E0,3.408186168E0
7.927343387E0,5.983642340E-1,1.977390289E0,2.968841076E0,3.616922649E0
7.932291669E0,7.476686239E-1,2.148293018E0,3.050944805E0,3.805579518E0
7.937239898E0,9.357614517E-1,2.310642719E0,3.127128363E0,3.999206305E0
7.942188023E0,1.155586958E0,2.409602165E0,3.149312973E0,4.130343329E0
7.947136304E0,1.306320667E0,2.521736145E0,3.254059792E0,4.319089256E0
7.952084533E0,1.529725075E0,2.565873146E0,3.342921019E0,4.483177974E0
7.957032658E0,1.593787670E0,2.585062504E0,3.416161299E0,4.570871395E0
7.961980939E0,1.728378296E0,2.584190845E0,3.464123726E0,4.654619968E0
7.966929169E0,1.845418453E0,2.608632088E0,3.496586800E0,4.736734095E0
7.971877294E0,1.874853730E0,2.603511333E0,3.563529015E0,4.795006445E0
7.976825575E0,1.970413208E0,2.643026352E0,3.628923893E0,4.902775248E0
7.981773804E0,2.110057831E0,2.710355759E0,3.594848394E0,4.972052631E0
7.986721929E0,2.241524696E0,2.819735527E0,3.533284426E0,5.045734856E0
7.991670210E0,2.254416466E0,2.978264332E0,3.489771366E0,5.111844698E0
7.996618439E0,2.391960144E0,3.164379597E0,3.435601950E0,5.247678755E0
8.001566564E0,2.501460552E0,3.370929241E0,3.327528954E0,5.356577058E0
8.006514846E0,2.541692972E0,3.578614712E0,3.232924938E0,5.451466782E0
8.011463075E0,2.587278366E0,3.780191422E0,3.137485743E0,5.552267403E0
8.016411200E0,2.607053041E0,3.959198475E0,3.030944586E0,5.626597836E0
8.021359481E0,2.639374256E0,4.151214123E0,2.930713177E0,5.726076744E0
8.026307710E0,2.703098297E0,4.313428402E0,2.814604044E0,5.816734557E0
8.031255835E0,2.778759480E0,4.452820301E0,2.754853725E0,5.927759436E0
8.036204116E0,2.772478104E0,4.505212784E0,2.740916729E0,5.957868879E0
8.041152346E0,2.847467184E0,4.532552242E0,2.670507669E0,5.981948713E0
8.046100471E0,2.818548203E0,4.444174767E0,2.531305075E0,5.839726766E0
8.051048752E0,2.925235748E0,4.282896519E0,2.276299238E0,5.664074946E0
8.055996981E0,2.951456070E0,4.036828041E0,1.922381163E0,5.357482888E0
8.060945106E0,2.993216753E0,3.698818207E0,1.460120916E0,4.977203607E0
8.065893387E0,3.013659000E0,3.342760563E0,9.886186123E-1,4.607988228E0
8.070841512E0,3.096481085E0,2.958896637E0,4.175004959E-1,4.303204745E0
8.075789794E0,3.092200279E0,2.515939713E0,-1.566867828E-1,3.989511994E0
8.080738023E0,3.179662943E0,2.125881672E0,-7.923092842E-1,3.906070060E0
8.085686252E0,3.097451448E0,1.692999840E0,-1.436519623E0,3.811042188E0
8.090634377E0,2.878359079E0,1.233572006E0,-1.941690683E0,3.684672793E0
8.095582658E0,2.565025330E0,7.786674500E-1,-2.448737144E0,3.630701247E0
8.100530887E0,2.179605246E0,2.751255035E-1,-2.845926523E0,3.595228900E0
8.105479012E0,1.562783837E0,-4.088897705E-1,-3.404714108E0,3.768496029E0
8.110427294E0,8.893814087E-1,-1.242810249E0,-4.273265362E0,4.538322758E0
8.115375523E0,1.610898376E-1,-2.186183929E0,-5.031374931E0,5.488176729E0
8.120323648E0,-5.207841396E-1,-3.090966225E0,-5.629985809E0,6.443758882E0
8.125271929E0,-1.190990448E0,-3.811310768E0,-6.143109322E0,7.326823333E0
8.130220158E0,-1.791110039E0,-4.261417389E0,-6.651732445E0,8.100203568E0
8.135168283E0,-2.487733841E0,-4.632614136E0,-7.458084106E0,9.125401467E0
8.140116564E0,-3.408681393E0,-4.929860115E0,-8.530840874E0,1.042582733E1
8.145064689E0,-4.641000271E0,-5.346861839E0,-9.576404572E0,1.190946429E1
8.150012971E0,-5.934389591E0,-5.919566154E0,-1.036760712E1,1.333212363E1
8.154961200E0,-7.068617344E0,-6.490293503E0,-1.076079178E1,1.441817952E1
8.159909429E0,-7.865117550E0,-7.083280563E0,-1.037350559E1,1.482034264E1
8.164857554E0,-8.390219688E0,-7.544814110E0,-8.982311249E0,1.442227173E1
8.169805835E0,-8.320275307E0,-7.455288887E0,-6.767469406E0,1.306165976E1
8.174754064E0,-7.716436386E0,-6.656288147E0,-4.106832504E0,1.098706674E1
8.179702189E0,-6.700930595E0,-5.336723328E0,-2.229777813E0,8.851835731E0
8.184650471E0,-5.416041374E0,-3.597311974E0,-1.537579775E0,6.681190700E0
8.189598596E0,-4.033883095E0,-1.662821770E0,-1.716471672E0,4.688652691E0
8.194546877E0,-2.969670773E0,2.254953384E-1,-1.967571020E0,3.569471721E0
8.199495106E0,-2.256017685E0,2.037415981E0,-1.720804214E0,3.493114201E0
8.204443231E0,-1.706181645E0,3.726131916E0,-7.918787003E-1,4.173989307E0
8.209391512E0,-1.199341774E0,5.230480194E0,3.553168774E-1,5.377973023E0
8.214339741E0,-6.758450866E-1,6.335790157E0,1.492953539E0,6.544303918E0
8.219287866E0,-7.519257069E-2,6.741522312E0,2.362244129E0,7.143806712E0
8.224236148E0,6.562355757E-1,6.340990067E0,3.011064529E0,7.050199271E0
8.229184377E0,1.320218086E0,5.355017662E0,3.506469727E0,6.535634621E0
8.234132502E0,1.800029635E0,4.054205418E0,3.839224100E0,5.866543271E0
